ID,time,trialnum,stimulusinterval,response,RT,lapses,session100,9:30:39,2,9000,lbuttondown,335,0,AM100,9:30:39,4,1000,lbuttondown,426,0,AM100,9:30:39,6,6000,lbuttondown,355,0,AM100,9:30:39,8,10000,lbuttondown,373,0,AM100,9:30:39,10,2000,lbuttondown,376,0,AM100,9:30:39,12,7000,lbuttondown,393,0,AM100,9:30:39,14,1000,lbuttondown,483,0,AM100,9:30:39,16,1000,lbuttondown,328,0,AM100,9:30:39,18,1000,lbuttondown,460,0,AM100,9:30:39,20,4000,lbuttondown,347,0,AM100,9:30:39,22,9000,lbuttondown,350,0,AM100,9:30:39,24,4000,lbuttondown,353,0,AM100,9:30:39,26,5000,lbuttondown,339,0,AM100,9:30:39,28,1000,lbuttondown,367,0,AM100,9:30:39,30,5000,lbuttondown,321,0,AM100,9:30:39,32,8000,lbuttondown,325,0,AM100,9:30:39,34,5000,lbuttondown,345,0,AM100,9:30:39,36,4000,lbuttondown,356,0,AM100,9:30:39,38,6000,lbuttondown,335,0,AM100,9:30:39,40,2000,lbuttondown,386,0,AM100,9:30:39,42,1000,lbuttondown,363,0,AM100,9:30:39,44,1000,lbuttondown,318,0,AM100,9:30:39,46,5000,lbuttondown,386,0,AM100,9:30:39,48,3000,lbuttondown,411,0,AM100,9:30:39,50,3000,lbuttondown,348,0,AM100,9:30:39,52,7000,lbuttondown,327,0,AM100,9:30:39,54,6000,lbuttondown,459,0,AM100,9:30:39,56,1000,lbuttondown,458,0,AM100,9:30:39,58,1000,lbuttondown,289,0,AM100,9:30:39,60,4000,lbuttondown,374,0,AM100,9:30:39,62,4000,lbuttondown,352,0,AM100,9:30:39,64,1000,lbuttondown,459,0,AM100,9:30:39,66,5000,lbuttondown,353,0,AM100,9:30:39,68,1000,lbuttondown,396,0,AM100,9:30:39,70,2000,lbuttondown,293,0,AM100,9:30:39,72,9000,lbuttondown,299,0,AM100,9:30:39,74,10000,lbuttondown,720,1,AM100,9:30:39,76,4000,lbuttondown,340,0,AM100,9:30:39,78,7000,lbuttondown,359,0,AM100,9:30:39,80,2000,lbuttondown,394,0,AM100,9:30:39,82,10000,lbuttondown,388,0,AM100,9:30:39,84,6000,lbuttondown,405,0,AM100,9:30:39,86,5000,lbuttondown,406,0,AM100,9:30:39,88,4000,lbuttondown,327,0,AM100,9:30:39,90,9000,lbuttondown,410,0,AM100,9:30:39,92,10000,lbuttondown,339,0,AM100,9:30:39,94,4000,lbuttondown,326,0,AM100,9:30:39,96,5000,lbuttondown,378,0,AM100,9:30:39,98,10000,lbuttondown,316,0,AM100,9:30:39,100,1000,lbuttondown,401,0,AM100,9:30:39,102,6000,lbuttondown,377,0,AM100,9:30:39,104,7000,lbuttondown,363,0,AM100,9:30:39,106,5000,lbuttondown,422,0,AM100,9:30:39,108,4000,lbuttondown,542,1,AM100,9:30:39,110,6000,lbuttondown,321,0,AM100,9:30:39,112,9000,lbuttondown,437,0,AM100,9:30:39,114,10000,lbuttondown,364,0,AM100,9:30:39,116,2000,lbuttondown,367,0,AM100,9:30:39,118,10000,lbuttondown,369,0,AM100,9:30:39,120,1000,lbuttondown,507,1,AM100,9:30:39,122,4000,lbuttondown,472,0,AM100,9:30:39,124,9000,lbuttondown,341,0,AM100,9:30:39,126,9000,lbuttondown,401,0,AM100,9:30:39,128,6000,lbuttondown,394,0,AM100,9:30:39,130,7000,lbuttondown,355,0,AM100,9:30:39,132,6000,lbuttondown,606,1,AM100,9:30:39,134,6000,lbuttondown,446,0,AM100,9:30:39,136,5000,lbuttondown,406,0,AM100,9:30:39,138,8000,lbuttondown,646,1,AM100,9:30:39,140,4000,lbuttondown,382,0,AM100,9:30:39,142,3000,lbuttondown,416,0,AM100,9:30:39,144,1000,lbuttondown,632,1,AM100,9:30:39,146,10000,lbuttondown,407,0,AM100,9:30:39,148,1000,lbuttondown,416,0,AM100,9:30:39,150,4000,lbuttondown,400,0,AM100,9:30:39,152,10000,lbuttondown,361,0,AM100,9:30:39,154,5000,lbuttondown,460,0,AM100,9:30:39,156,8000,lbuttondown,506,1,AM100,9:30:39,158,4000,lbuttondown,359,0,AM100,9:30:39,160,8000,lbuttondown,369,0,AM100,9:30:39,162,9000,lbuttondown,539,1,AM100,9:30:39,164,4000,lbuttondown,408,0,AM100,9:30:39,166,7000,lbuttondown,416,0,AM100,9:30:39,168,4000,lbuttondown,352,0,AM100,9:30:39,170,5000,lbuttondown,379,0,AM100,9:30:39,172,7000,lbuttondown,429,0,AM100,9:30:39,174,7000,lbuttondown,349,0,AM100,9:30:39,176,8000,lbuttondown,360,0,AM100,9:30:39,178,9000,lbuttondown,523,1,AM100,9:30:39,180,7000,lbuttondown,391,0,AM100,9:30:39,182,10000,lbuttondown,368,0,AM100,9:30:39,184,9000,lbuttondown,378,0,AM100,9:30:39,186,10000,lbuttondown,428,0,AM100,9:30:39,188,8000,0,0,0,AM100,23:07:23,2,9000,lbuttondown,468,0,PM100,23:07:23,4,1000,lbuttondown,506,1,PM100,23:07:23,6,3000,lbuttondown,343,0,PM100,23:07:23,8,8000,lbuttondown,330,0,PM100,23:07:23,10,5000,lbuttondown,350,0,PM100,23:07:23,12,9000,lbuttondown,329,0,PM100,23:07:23,14,3000,lbuttondown,349,0,PM100,23:07:23,16,10000,lbuttondown,416,0,PM100,23:07:23,18,1000,lbuttondown,752,1,PM100,23:07:23,20,4000,lbuttondown,523,1,PM100,23:07:23,22,10000,lbuttondown,319,0,PM100,23:07:23,24,10000,lbuttondown,323,0,PM100,23:07:23,26,10000,lbuttondown,335,0,PM100,23:07:23,28,10000,lbuttondown,490,0,PM100,23:07:23,30,1000,lbuttondown,455,0,PM100,23:07:23,32,6000,lbuttondown,558,1,PM100,23:07:23,34,10000,lbuttondown,353,0,PM100,23:07:23,36,8000,lbuttondown,315,0,PM100,23:07:23,38,9000,lbuttondown,344,0,PM100,23:07:23,40,8000,lbuttondown,340,0,PM100,23:07:23,42,6000,lbuttondown,327,0,PM100,23:07:23,44,5000,lbuttondown,323,0,PM100,23:07:23,46,7000,lbuttondown,319,0,PM100,23:07:23,48,10000,lbuttondown,299,0,PM100,23:07:23,50,1000,lbuttondown,712,1,PM100,23:07:23,52,9000,lbuttondown,356,0,PM100,23:07:23,54,1000,lbuttondown,359,0,PM100,23:07:23,56,9000,lbuttondown,482,0,PM100,23:07:23,58,3000,lbuttondown,376,0,PM100,23:07:23,60,7000,lbuttondown,378,0,PM100,23:07:23,62,10000,lbuttondown,316,0,PM100,23:07:23,64,10000,lbuttondown,1552,1,PM100,23:07:23,66,2000,lbuttondown,378,0,PM100,23:07:23,68,1000,lbuttondown,340,0,PM100,23:07:23,70,10000,lbuttondown,369,0,PM100,23:07:23,72,3000,lbuttondown,394,0,PM100,23:07:23,74,3000,lbuttondown,444,0,PM100,23:07:23,76,1000,lbuttondown,427,0,PM100,23:07:23,78,4000,lbuttondown,323,0,PM100,23:07:23,80,2000,lbuttondown,303,0,PM100,23:07:23,82,6000,lbuttondown,388,0,PM100,23:07:23,84,9000,lbuttondown,373,0,PM100,23:07:23,86,9000,lbuttondown,343,0,PM100,23:07:23,88,3000,lbuttondown,371,0,PM100,23:07:23,90,10000,lbuttondown,413,0,PM100,23:07:23,92,3000,lbuttondown,358,0,PM100,23:07:23,94,10000,lbuttondown,368,0,PM100,23:07:23,96,6000,lbuttondown,418,0,PM100,23:07:23,98,7000,lbuttondown,298,0,PM100,23:07:23,100,1000,lbuttondown,416,0,PM100,23:07:23,102,8000,lbuttondown,336,0,PM100,23:07:23,104,8000,lbuttondown,355,0,PM100,23:07:23,106,1000,lbuttondown,382,0,PM100,23:07:23,108,10000,lbuttondown,392,0,PM100,23:07:23,110,9000,lbuttondown,409,0,PM100,23:07:23,112,6000,lbuttondown,370,0,PM100,23:07:23,114,1000,lbuttondown,916,1,PM100,23:07:23,116,8000,lbuttondown,455,0,PM100,23:07:23,118,2000,lbuttondown,431,0,PM100,23:07:23,120,7000,lbuttondown,575,1,PM100,23:07:23,122,3000,lbuttondown,354,0,PM100,23:07:23,124,8000,lbuttondown,420,0,PM100,23:07:23,126,8000,lbuttondown,436,0,PM100,23:07:23,128,5000,lbuttondown,403,0,PM100,23:07:23,130,6000,lbuttondown,388,0,PM100,23:07:23,132,4000,lbuttondown,326,0,PM100,23:07:23,134,5000,lbuttondown,402,0,PM100,23:07:23,136,5000,lbuttondown,410,0,PM100,23:07:23,138,1000,lbuttondown,419,0,PM100,23:07:23,140,4000,lbuttondown,411,0,PM100,23:07:23,142,3000,lbuttondown,379,0,PM100,23:07:23,144,5000,lbuttondown,421,0,PM100,23:07:23,146,7000,lbuttondown,325,0,PM100,23:07:23,148,1000,lbuttondown,433,0,PM100,23:07:23,150,8000,lbuttondown,401,0,PM100,23:07:23,152,2000,lbuttondown,361,0,PM100,23:07:23,154,2000,lbuttondown,332,0,PM100,23:07:23,156,6000,lbuttondown,368,0,PM100,23:07:23,158,2000,lbuttondown,386,0,PM100,23:07:23,160,5000,lbuttondown,475,0,PM100,23:07:23,162,6000,lbuttondown,441,0,PM100,23:07:23,164,9000,lbuttondown,489,0,PM100,23:07:23,166,10000,lbuttondown,375,0,PM100,23:07:23,168,9000,lbuttondown,369,0,PM100,23:07:23,170,1000,lbuttondown,419,0,PM100,23:07:23,172,1000,lbuttondown,331,0,PM100,23:07:23,174,9000,lbuttondown,343,0,PM100,23:07:23,176,1000,lbuttondown,402,0,PM100,23:07:23,178,6000,lbuttondown,379,0,PM100,23:07:23,180,2000,lbuttondown,421,0,PM100,23:07:23,182,2000,lbuttondown,373,0,PM100,23:07:23,184,1000,0,0,0,PM101,9:29:11,2,10000,lbuttondown,302,0,AM101,9:29:11,4,2000,lbuttondown,275,0,AM101,9:29:11,6,8000,lbuttondown,321,0,AM101,9:29:11,8,1000,lbuttondown,341,0,AM101,9:29:11,10,1000,lbuttondown,280,0,AM101,9:29:11,12,3000,lbuttondown,254,0,AM101,9:29:11,14,6000,lbuttondown,237,0,AM101,9:29:11,16,3000,lbuttondown,260,0,AM101,9:29:11,18,1000,lbuttondown,291,0,AM101,9:29:11,20,5000,lbuttondown,272,0,AM101,9:29:11,22,2000,lbuttondown,254,0,AM101,9:29:11,24,5000,lbuttondown,269,0,AM101,9:29:11,26,8000,lbuttondown,299,0,AM101,9:29:11,28,9000,lbuttondown,288,0,AM101,9:29:11,30,5000,lbuttondown,477,0,AM101,9:29:11,32,4000,lbuttondown,243,0,AM101,9:29:11,34,2000,lbuttondown,259,0,AM101,9:29:11,36,5000,lbuttondown,346,0,AM101,9:29:11,38,9000,lbuttondown,309,0,AM101,9:29:11,40,6000,lbuttondown,289,0,AM101,9:29:11,42,2000,lbuttondown,287,0,AM101,9:29:11,44,3000,lbuttondown,276,0,AM101,9:29:11,46,7000,lbuttondown,298,0,AM101,9:29:11,48,6000,lbuttondown,263,0,AM101,9:29:11,50,3000,lbuttondown,302,0,AM101,9:29:11,52,10000,lbuttondown,274,0,AM101,9:29:11,54,7000,lbuttondown,496,0,AM101,9:29:11,56,1000,lbuttondown,318,0,AM101,9:29:11,58,2000,lbuttondown,330,0,AM101,9:29:11,60,1000,lbuttondown,358,0,AM101,9:29:11,62,4000,lbuttondown,313,0,AM101,9:29:11,64,10000,lbuttondown,405,0,AM101,9:29:11,66,9000,lbuttondown,342,0,AM101,9:29:11,68,5000,lbuttondown,353,0,AM101,9:29:11,70,7000,lbuttondown,300,0,AM101,9:29:11,72,4000,lbuttondown,377,0,AM101,9:29:11,74,6000,lbuttondown,282,0,AM101,9:29:11,76,7000,lbuttondown,280,0,AM101,9:29:11,78,8000,lbuttondown,374,0,AM101,9:29:11,80,3000,lbuttondown,440,0,AM101,9:29:11,82,2000,lbuttondown,271,0,AM101,9:29:11,84,4000,lbuttondown,269,0,AM101,9:29:11,86,7000,lbuttondown,323,0,AM101,9:29:11,88,6000,lbuttondown,415,0,AM101,9:29:11,90,1000,lbuttondown,360,0,AM101,9:29:11,92,9000,lbuttondown,307,0,AM101,9:29:11,94,8000,lbuttondown,295,0,AM101,9:29:11,96,10000,lbuttondown,348,0,AM101,9:29:11,98,1000,lbuttondown,376,0,AM101,9:29:11,100,10000,lbuttondown,338,0,AM101,9:29:11,102,2000,lbuttondown,317,0,AM101,9:29:11,104,8000,lbuttondown,265,0,AM101,9:29:11,106,7000,lbuttondown,304,0,AM101,9:29:11,108,4000,lbuttondown,260,0,AM101,9:29:11,110,9000,lbuttondown,283,0,AM101,9:29:11,112,5000,lbuttondown,272,0,AM101,9:29:11,114,3000,lbuttondown,294,0,AM101,9:29:11,116,5000,lbuttondown,260,0,AM101,9:29:11,118,10000,lbuttondown,346,0,AM101,9:29:11,120,5000,lbuttondown,310,0,AM101,9:29:11,122,2000,lbuttondown,314,0,AM101,9:29:11,124,9000,lbuttondown,343,0,AM101,9:29:11,126,5000,lbuttondown,274,0,AM101,9:29:11,128,3000,lbuttondown,288,0,AM101,9:29:11,130,2000,lbuttondown,478,0,AM101,9:29:11,132,7000,lbuttondown,340,0,AM101,9:29:11,134,7000,lbuttondown,304,0,AM101,9:29:11,136,7000,lbuttondown,308,0,AM101,9:29:11,138,10000,lbuttondown,353,0,AM101,9:29:11,140,7000,lbuttondown,571,1,AM101,9:29:11,142,3000,lbuttondown,318,0,AM101,9:29:11,144,7000,lbuttondown,330,0,AM101,9:29:11,146,10000,lbuttondown,349,0,AM101,9:29:11,148,3000,lbuttondown,504,1,AM101,9:29:11,150,9000,lbuttondown,293,0,AM101,9:29:11,152,10000,lbuttondown,658,1,AM101,9:29:11,154,9000,lbuttondown,321,0,AM101,9:29:11,156,4000,lbuttondown,317,0,AM101,9:29:11,158,8000,lbuttondown,297,0,AM101,9:29:11,160,6000,lbuttondown,326,0,AM101,9:29:11,162,3000,lbuttondown,346,0,AM101,9:29:11,164,1000,lbuttondown,357,0,AM101,9:29:11,166,10000,lbuttondown,320,0,AM101,9:29:11,168,1000,lbuttondown,348,0,AM101,9:29:11,170,1000,lbuttondown,247,0,AM101,9:29:11,172,9000,lbuttondown,431,0,AM101,9:29:11,174,8000,lbuttondown,319,0,AM101,9:29:11,176,4000,lbuttondown,347,0,AM101,9:29:11,178,9000,lbuttondown,310,0,AM101,9:29:11,180,9000,lbuttondown,419,0,AM101,9:29:11,182,4000,lbuttondown,291,0,AM101,9:29:11,184,1000,lbuttondown,352,0,AM101,9:29:11,186,2000,lbuttondown,299,0,AM101,9:29:11,188,7000,lbuttondown,376,0,AM101,9:29:11,190,1000,lbuttondown,402,0,AM101,23:01:34,2,8000,lbuttondown,414,0,PM101,23:01:34,4,1000,lbuttondown,455,0,PM101,23:01:34,6,9000,lbuttondown,390,0,PM101,23:01:34,8,9000,lbuttondown,351,0,PM101,23:01:34,10,3000,lbuttondown,330,0,PM101,23:01:34,12,4000,lbuttondown,350,0,PM101,23:01:34,14,7000,lbuttondown,432,0,PM101,23:01:34,16,3000,lbuttondown,336,0,PM101,23:01:34,18,7000,lbuttondown,299,0,PM101,23:01:34,20,2000,lbuttondown,352,0,PM101,23:01:34,22,5000,lbuttondown,282,0,PM101,23:01:34,24,4000,lbuttondown,336,0,PM101,23:01:34,26,2000,lbuttondown,324,0,PM101,23:01:34,28,3000,lbuttondown,336,0,PM101,23:01:34,30,10000,lbuttondown,291,0,PM101,23:01:34,32,10000,lbuttondown,328,0,PM101,23:01:34,34,6000,lbuttondown,284,0,PM101,23:01:34,36,7000,lbuttondown,314,0,PM101,23:01:34,38,3000,lbuttondown,278,0,PM101,23:01:34,40,8000,lbuttondown,300,0,PM101,23:01:34,42,3000,lbuttondown,521,1,PM101,23:01:34,44,8000,lbuttondown,261,0,PM101,23:01:34,46,8000,lbuttondown,251,0,PM101,23:01:34,48,4000,lbuttondown,274,0,PM101,23:01:34,50,6000,lbuttondown,352,0,PM101,23:01:34,52,10000,lbuttondown,275,0,PM101,23:01:34,54,3000,lbuttondown,377,0,PM101,23:01:34,56,2000,lbuttondown,467,0,PM101,23:01:34,58,1000,lbuttondown,257,0,PM101,23:01:34,60,9000,lbuttondown,295,0,PM101,23:01:34,62,8000,lbuttondown,261,0,PM101,23:01:34,64,3000,lbuttondown,339,0,PM101,23:01:34,66,4000,lbuttondown,287,0,PM101,23:01:34,68,4000,lbuttondown,268,0,PM101,23:01:34,70,6000,lbuttondown,274,0,PM101,23:01:34,72,1000,lbuttondown,304,0,PM101,23:01:34,74,1000,lbuttondown,277,0,PM101,23:01:34,76,1000,lbuttondown,235,0,PM101,23:01:34,78,4000,lbuttondown,322,0,PM101,23:01:34,80,4000,lbuttondown,262,0,PM101,23:01:34,82,5000,lbuttondown,285,0,PM101,23:01:34,84,2000,lbuttondown,307,0,PM101,23:01:34,86,5000,lbuttondown,311,0,PM101,23:01:34,88,6000,lbuttondown,388,0,PM101,23:01:34,90,10000,lbuttondown,341,0,PM101,23:01:34,92,3000,lbuttondown,337,0,PM101,23:01:34,94,1000,lbuttondown,316,0,PM101,23:01:34,96,8000,lbuttondown,296,0,PM101,23:01:34,98,1000,lbuttondown,325,0,PM101,23:01:34,100,4000,lbuttondown,305,0,PM101,23:01:34,102,7000,lbuttondown,335,0,PM101,23:01:34,104,8000,lbuttondown,426,0,PM101,23:01:34,106,2000,lbuttondown,322,0,PM101,23:01:34,108,6000,lbuttondown,294,0,PM101,23:01:34,110,6000,lbuttondown,291,0,PM101,23:01:34,112,1000,lbuttondown,321,0,PM101,23:01:34,114,4000,lbuttondown,317,0,PM101,23:01:34,116,1000,lbuttondown,297,0,PM101,23:01:34,118,5000,lbuttondown,278,0,PM101,23:01:34,120,2000,lbuttondown,276,0,PM101,23:01:34,122,7000,lbuttondown,330,0,PM101,23:01:34,124,7000,lbuttondown,366,0,PM101,23:01:34,126,8000,lbuttondown,312,0,PM101,23:01:34,128,9000,lbuttondown,341,0,PM101,23:01:34,130,9000,lbuttondown,328,0,PM101,23:01:34,132,7000,lbuttondown,316,0,PM101,23:01:34,134,10000,lbuttondown,288,0,PM101,23:01:34,136,10000,lbuttondown,309,0,PM101,23:01:34,138,4000,lbuttondown,338,0,PM101,23:01:34,140,6000,lbuttondown,357,0,PM101,23:01:34,142,2000,lbuttondown,288,0,PM101,23:01:34,144,8000,lbuttondown,293,0,PM101,23:01:34,146,6000,lbuttondown,298,0,PM101,23:01:34,148,4000,lbuttondown,312,0,PM101,23:01:34,150,10000,lbuttondown,404,0,PM101,23:01:34,152,3000,lbuttondown,341,0,PM101,23:01:34,154,3000,lbuttondown,344,0,PM101,23:01:34,156,10000,lbuttondown,476,0,PM101,23:01:34,158,8000,lbuttondown,330,0,PM101,23:01:34,160,7000,lbuttondown,334,0,PM101,23:01:34,162,3000,lbuttondown,377,0,PM101,23:01:34,164,8000,lbuttondown,299,0,PM101,23:01:34,166,10000,lbuttondown,288,0,PM101,23:01:34,168,1000,lbuttondown,365,0,PM101,23:01:34,170,3000,lbuttondown,376,0,PM101,23:01:34,172,1000,lbuttondown,330,0,PM101,23:01:34,174,10000,lbuttondown,286,0,PM101,23:01:34,176,6000,lbuttondown,331,0,PM101,23:01:34,178,4000,lbuttondown,312,0,PM101,23:01:34,180,2000,lbuttondown,492,0,PM101,23:01:34,182,2000,lbuttondown,298,0,PM101,23:01:34,184,1000,lbuttondown,335,0,PM101,23:01:34,186,10000,lbuttondown,346,0,PM101,23:01:34,188,6000,lbuttondown,310,0,PM101,23:01:34,190,4000,lbuttondown,298,0,PM101,23:01:34,192,6000,lbuttondown,303,0,PM101,23:01:34,194,8000,lbuttondown,356,0,PM101,23:01:34,196,2000,0,0,0,PM102,9:15:54,2,10000,lbuttondown,230,0,AM102,9:15:54,4,1000,lbuttondown,246,0,AM102,9:15:54,6,6000,lbuttondown,237,0,AM102,9:15:54,8,3000,lbuttondown,237,0,AM102,9:15:54,10,1000,lbuttondown,260,0,AM102,9:15:54,12,2000,lbuttondown,243,0,AM102,9:15:54,14,2000,lbuttondown,274,0,AM102,9:15:54,16,5000,lbuttondown,264,0,AM102,9:15:54,18,7000,lbuttondown,295,0,AM102,9:15:54,20,1000,lbuttondown,316,0,AM102,9:15:54,22,9000,lbuttondown,256,0,AM102,9:15:54,24,5000,lbuttondown,271,0,AM102,9:15:54,26,6000,lbuttondown,261,0,AM102,9:15:54,28,4000,lbuttondown,267,0,AM102,9:15:54,30,10000,lbuttondown,265,0,AM102,9:15:54,32,3000,lbuttondown,264,0,AM102,9:15:54,34,3000,lbuttondown,263,0,AM102,9:15:54,36,4000,lbuttondown,278,0,AM102,9:15:54,38,5000,lbuttondown,260,0,AM102,9:15:54,40,8000,lbuttondown,227,0,AM102,9:15:54,42,5000,lbuttondown,251,0,AM102,9:15:54,44,6000,lbuttondown,265,0,AM102,9:15:54,46,2000,lbuttondown,248,0,AM102,9:15:54,48,2000,lbuttondown,271,0,AM102,9:15:54,50,3000,lbuttondown,285,0,AM102,9:15:54,52,8000,lbuttondown,234,0,AM102,9:15:54,54,2000,lbuttondown,242,0,AM102,9:15:54,56,9000,lbuttondown,305,0,AM102,9:15:54,58,9000,lbuttondown,262,0,AM102,9:15:54,60,9000,lbuttondown,340,0,AM102,9:15:54,62,7000,lbuttondown,304,0,AM102,9:15:54,64,5000,lbuttondown,268,0,AM102,9:15:54,66,10000,lbuttondown,258,0,AM102,9:15:54,68,10000,lbuttondown,289,0,AM102,9:15:54,70,1000,lbuttondown,294,0,AM102,9:15:54,72,5000,lbuttondown,285,0,AM102,9:15:54,74,5000,lbuttondown,274,0,AM102,9:15:54,76,4000,lbuttondown,272,0,AM102,9:15:54,78,3000,lbuttondown,326,0,AM102,9:15:54,80,10000,lbuttondown,354,0,AM102,9:15:54,82,9000,lbuttondown,460,0,AM102,9:15:54,84,3000,lbuttondown,268,0,AM102,9:15:54,86,4000,lbuttondown,242,0,AM102,9:15:54,88,4000,lbuttondown,265,0,AM102,9:15:54,90,9000,lbuttondown,272,0,AM102,9:15:54,92,3000,lbuttondown,310,0,AM102,9:15:54,94,8000,lbuttondown,251,0,AM102,9:15:54,96,9000,lbuttondown,282,0,AM102,9:15:54,98,5000,lbuttondown,440,0,AM102,9:15:54,100,7000,lbuttondown,255,0,AM102,9:15:54,102,8000,lbuttondown,246,0,AM102,9:15:54,104,5000,lbuttondown,293,0,AM102,9:15:54,106,3000,lbuttondown,306,0,AM102,9:15:54,108,4000,lbuttondown,343,0,AM102,9:15:54,110,3000,lbuttondown,234,0,AM102,9:15:54,112,6000,lbuttondown,282,0,AM102,9:15:54,114,4000,lbuttondown,264,0,AM102,9:15:54,116,3000,lbuttondown,318,0,AM102,9:15:54,118,1000,lbuttondown,330,0,AM102,9:15:54,120,1000,lbuttondown,270,0,AM102,9:15:54,122,2000,lbuttondown,268,0,AM102,9:15:54,124,5000,lbuttondown,282,0,AM102,9:15:54,126,3000,lbuttondown,272,0,AM102,9:15:54,128,1000,lbuttondown,342,0,AM102,9:15:54,130,3000,lbuttondown,258,0,AM102,9:15:54,132,6000,lbuttondown,249,0,AM102,9:15:54,134,9000,lbuttondown,296,0,AM102,9:15:54,136,8000,lbuttondown,373,0,AM102,9:15:54,138,1000,lbuttondown,480,0,AM102,9:15:54,140,4000,lbuttondown,325,0,AM102,9:15:54,142,5000,lbuttondown,274,0,AM102,9:15:54,144,7000,lbuttondown,447,0,AM102,9:15:54,146,4000,lbuttondown,431,0,AM102,9:15:54,148,8000,lbuttondown,279,0,AM102,9:15:54,150,8000,lbuttondown,269,0,AM102,9:15:54,152,4000,lbuttondown,291,0,AM102,9:15:54,154,2000,lbuttondown,368,0,AM102,9:15:54,156,7000,lbuttondown,258,0,AM102,9:15:54,158,10000,lbuttondown,273,0,AM102,9:15:54,160,5000,lbuttondown,431,0,AM102,9:15:54,162,9000,lbuttondown,335,0,AM102,9:15:54,164,2000,lbuttondown,322,0,AM102,9:15:54,166,2000,lbuttondown,470,0,AM102,9:15:54,168,2000,lbuttondown,268,0,AM102,9:15:54,170,3000,lbuttondown,266,0,AM102,9:15:54,172,10000,lbuttondown,296,0,AM102,9:15:54,174,8000,lbuttondown,277,0,AM102,9:15:54,176,5000,lbuttondown,284,0,AM102,9:15:54,178,4000,lbuttondown,273,0,AM102,9:15:54,180,2000,lbuttondown,335,0,AM102,9:15:54,182,4000,lbuttondown,299,0,AM102,9:15:54,184,6000,lbuttondown,240,0,AM102,9:15:54,186,9000,lbuttondown,263,0,AM102,9:15:54,188,9000,lbuttondown,286,0,AM102,9:15:54,190,8000,lbuttondown,267,0,AM102,9:15:54,192,4000,lbuttondown,321,0,AM102,9:15:54,194,3000,lbuttondown,301,0,AM102,9:15:54,196,7000,lbuttondown,458,0,AM102,9:15:54,198,9000,0,0,0,AM102,22:47:54,2,6000,lbuttondown,262,0,PM102,22:47:54,4,10000,lbuttondown,245,0,PM102,22:47:54,6,3000,lbuttondown,396,0,PM102,22:47:54,8,10000,lbuttondown,229,0,PM102,22:47:54,10,5000,lbuttondown,269,0,PM102,22:47:54,12,3000,lbuttondown,203,0,PM102,22:47:54,14,7000,lbuttondown,420,0,PM102,22:47:54,16,10000,lbuttondown,244,0,PM102,22:47:54,18,8000,lbuttondown,251,0,PM102,22:47:54,20,4000,lbuttondown,314,0,PM102,22:47:54,22,3000,lbuttondown,255,0,PM102,22:47:54,24,7000,lbuttondown,238,0,PM102,22:47:54,26,10000,lbuttondown,245,0,PM102,22:47:54,28,5000,lbuttondown,253,0,PM102,22:47:54,30,7000,lbuttondown,243,0,PM102,22:47:54,32,6000,lbuttondown,235,0,PM102,22:47:54,34,7000,lbuttondown,242,0,PM102,22:47:54,36,3000,lbuttondown,281,0,PM102,22:47:54,38,4000,lbuttondown,231,0,PM102,22:47:54,40,1000,lbuttondown,319,0,PM102,22:47:54,42,10000,lbuttondown,379,0,PM102,22:47:54,44,8000,lbuttondown,373,0,PM102,22:47:54,46,5000,lbuttondown,239,0,PM102,22:47:54,48,8000,lbuttondown,246,0,PM102,22:47:54,50,5000,lbuttondown,246,0,PM102,22:47:54,52,9000,lbuttondown,254,0,PM102,22:47:54,54,1000,lbuttondown,405,0,PM102,22:47:54,56,6000,lbuttondown,293,0,PM102,22:47:54,58,6000,lbuttondown,250,0,PM102,22:47:54,60,3000,lbuttondown,281,0,PM102,22:47:54,62,9000,lbuttondown,247,0,PM102,22:47:54,64,5000,lbuttondown,247,0,PM102,22:47:54,66,4000,lbuttondown,270,0,PM102,22:47:54,68,5000,lbuttondown,244,0,PM102,22:47:54,70,2000,lbuttondown,283,0,PM102,22:47:54,72,7000,lbuttondown,304,0,PM102,22:47:54,74,7000,lbuttondown,261,0,PM102,22:47:54,76,6000,lbuttondown,252,0,PM102,22:47:54,78,7000,lbuttondown,266,0,PM102,22:47:54,80,5000,lbuttondown,296,0,PM102,22:47:54,82,9000,lbuttondown,334,0,PM102,22:47:54,84,8000,lbuttondown,321,0,PM102,22:47:54,86,2000,lbuttondown,301,0,PM102,22:47:54,88,2000,lbuttondown,314,0,PM102,22:47:54,90,9000,lbuttondown,422,0,PM102,22:47:54,92,4000,lbuttondown,358,0,PM102,22:47:54,94,7000,lbuttondown,257,0,PM102,22:47:54,96,5000,lbuttondown,256,0,PM102,22:47:54,98,3000,lbuttondown,262,0,PM102,22:47:54,100,4000,lbuttondown,245,0,PM102,22:47:54,102,4000,lbuttondown,300,0,PM102,22:47:54,104,2000,lbuttondown,265,0,PM102,22:47:54,106,9000,lbuttondown,264,0,PM102,22:47:54,108,5000,lbuttondown,286,0,PM102,22:47:54,110,8000,lbuttondown,268,0,PM102,22:47:54,112,4000,lbuttondown,274,0,PM102,22:47:54,114,8000,lbuttondown,272,0,PM102,22:47:54,116,7000,lbuttondown,246,0,PM102,22:47:54,118,9000,lbuttondown,317,0,PM102,22:47:54,120,3000,lbuttondown,361,0,PM102,22:47:54,122,8000,lbuttondown,243,0,PM102,22:47:54,124,6000,lbuttondown,259,0,PM102,22:47:54,126,2000,lbuttondown,418,0,PM102,22:47:54,128,10000,lbuttondown,265,0,PM102,22:47:54,130,3000,lbuttondown,312,0,PM102,22:47:54,132,9000,lbuttondown,277,0,PM102,22:47:54,134,8000,lbuttondown,267,0,PM102,22:47:54,136,9000,lbuttondown,257,0,PM102,22:47:54,138,7000,lbuttondown,287,0,PM102,22:47:54,140,5000,lbuttondown,269,0,PM102,22:47:54,142,10000,lbuttondown,307,0,PM102,22:47:54,144,2000,lbuttondown,328,0,PM102,22:47:54,146,5000,lbuttondown,267,0,PM102,22:47:54,148,5000,lbuttondown,265,0,PM102,22:47:54,150,10000,lbuttondown,248,0,PM102,22:47:54,152,8000,lbuttondown,247,0,PM102,22:47:54,154,2000,lbuttondown,335,0,PM102,22:47:54,156,4000,lbuttondown,338,0,PM102,22:47:54,158,9000,lbuttondown,261,0,PM102,22:47:54,160,2000,lbuttondown,324,0,PM102,22:47:54,162,6000,lbuttondown,248,0,PM102,22:47:54,164,3000,lbuttondown,367,0,PM102,22:47:54,166,5000,lbuttondown,265,0,PM102,22:47:54,168,10000,lbuttondown,248,0,PM102,22:47:54,170,1000,lbuttondown,255,0,PM102,22:47:54,172,7000,lbuttondown,430,0,PM102,22:47:54,174,3000,lbuttondown,294,0,PM102,22:47:54,176,7000,lbuttondown,259,0,PM102,22:47:54,178,5000,lbuttondown,250,0,PM102,22:47:54,180,9000,0,0,0,PM103,9:16:30,2,3000,lbuttondown,288,0,AM103,9:16:30,4,2000,lbuttondown,261,0,AM103,9:16:30,6,7000,lbuttondown,307,0,AM103,9:16:30,8,2000,lbuttondown,360,0,AM103,9:16:30,10,4000,lbuttondown,268,0,AM103,9:16:30,12,4000,lbuttondown,297,0,AM103,9:16:30,14,10000,lbuttondown,287,0,AM103,9:16:30,16,8000,lbuttondown,308,0,AM103,9:16:30,18,6000,lbuttondown,265,0,AM103,9:16:30,20,10000,lbuttondown,255,0,AM103,9:16:30,22,6000,lbuttondown,246,0,AM103,9:16:30,24,1000,lbuttondown,309,0,AM103,9:16:30,26,10000,lbuttondown,306,0,AM103,9:16:30,28,4000,lbuttondown,287,0,AM103,9:16:30,30,4000,lbuttondown,436,0,AM103,9:16:30,32,9000,lbuttondown,259,0,AM103,9:16:30,34,3000,lbuttondown,322,0,AM103,9:16:30,36,7000,lbuttondown,270,0,AM103,9:16:30,38,1000,lbuttondown,540,1,AM103,9:16:30,40,2000,lbuttondown,415,0,AM103,9:16:30,42,4000,lbuttondown,304,0,AM103,9:16:30,44,4000,lbuttondown,445,0,AM103,9:16:30,46,7000,lbuttondown,276,0,AM103,9:16:30,48,10000,lbuttondown,274,0,AM103,9:16:30,50,8000,lbuttondown,512,1,AM103,9:16:30,52,7000,lbuttondown,477,0,AM103,9:16:30,54,5000,lbuttondown,267,0,AM103,9:16:30,56,2000,lbuttondown,297,0,AM103,9:16:30,58,10000,lbuttondown,335,0,AM103,9:16:30,60,10000,lbuttondown,274,0,AM103,9:16:30,62,3000,lbuttondown,312,0,AM103,9:16:30,64,8000,lbuttondown,309,0,AM103,9:16:30,66,3000,lbuttondown,386,0,AM103,9:16:30,68,2000,lbuttondown,315,0,AM103,9:16:30,70,6000,lbuttondown,296,0,AM103,9:16:30,72,3000,lbuttondown,365,0,AM103,9:16:30,74,6000,lbuttondown,264,0,AM103,9:16:30,76,5000,lbuttondown,294,0,AM103,9:16:30,78,5000,lbuttondown,284,0,AM103,9:16:30,80,5000,lbuttondown,273,0,AM103,9:16:30,82,3000,lbuttondown,271,0,AM103,9:16:30,84,1000,lbuttondown,453,0,AM103,9:16:30,86,5000,lbuttondown,324,0,AM103,9:16:30,88,2000,lbuttondown,456,0,AM103,9:16:30,90,7000,lbuttondown,270,0,AM103,9:16:30,92,7000,lbuttondown,484,0,AM103,9:16:30,94,1000,lbuttondown,386,0,AM103,9:16:30,96,6000,lbuttondown,315,0,AM103,9:16:30,98,5000,lbuttondown,312,0,AM103,9:16:30,100,2000,lbuttondown,476,0,AM103,9:16:30,102,8000,lbuttondown,354,0,AM103,9:16:30,104,10000,lbuttondown,277,0,AM103,9:16:30,106,2000,lbuttondown,283,0,AM103,9:16:30,108,4000,lbuttondown,320,0,AM103,9:16:30,110,10000,lbuttondown,276,0,AM103,9:16:30,112,3000,lbuttondown,330,0,AM103,9:16:30,114,4000,lbuttondown,350,0,AM103,9:16:30,116,2000,lbuttondown,297,0,AM103,9:16:30,118,5000,lbuttondown,310,0,AM103,9:16:30,120,4000,lbuttondown,291,0,AM103,9:16:30,122,2000,lbuttondown,392,0,AM103,9:16:30,124,4000,lbuttondown,290,0,AM103,9:16:30,126,8000,lbuttondown,295,0,AM103,9:16:30,128,4000,lbuttondown,284,0,AM103,9:16:30,130,10000,lbuttondown,281,0,AM103,9:16:30,132,4000,lbuttondown,456,0,AM103,9:16:30,134,3000,lbuttondown,334,0,AM103,9:16:30,136,3000,lbuttondown,426,0,AM103,9:16:30,138,5000,lbuttondown,305,0,AM103,9:16:30,140,3000,lbuttondown,414,0,AM103,9:16:30,142,1000,lbuttondown,591,1,AM103,9:16:30,144,5000,lbuttondown,312,0,AM103,9:16:30,146,2000,lbuttondown,333,0,AM103,9:16:30,148,6000,lbuttondown,528,1,AM103,9:16:30,150,2000,lbuttondown,444,0,AM103,9:16:30,152,7000,lbuttondown,267,0,AM103,9:16:30,154,6000,lbuttondown,385,0,AM103,9:16:30,156,5000,lbuttondown,467,0,AM103,9:16:30,158,1000,lbuttondown,729,1,AM103,9:16:30,160,6000,lbuttondown,325,0,AM103,9:16:30,162,6000,lbuttondown,273,0,AM103,9:16:30,164,8000,lbuttondown,271,0,AM103,9:16:30,166,10000,lbuttondown,285,0,AM103,9:16:30,168,10000,lbuttondown,370,0,AM103,9:16:30,170,5000,lbuttondown,268,0,AM103,9:16:30,172,7000,lbuttondown,306,0,AM103,9:16:30,174,6000,lbuttondown,239,0,AM103,9:16:30,176,6000,lbuttondown,278,0,AM103,9:16:30,178,9000,lbuttondown,341,0,AM103,9:16:30,180,5000,lbuttondown,360,0,AM103,9:16:30,182,4000,lbuttondown,347,0,AM103,9:16:30,184,9000,lbuttondown,335,0,AM103,9:16:30,186,8000,lbuttondown,346,0,AM103,9:16:30,188,7000,lbuttondown,286,0,AM103,9:16:30,190,2000,lbuttondown,299,0,AM103,9:16:30,192,2000,lbuttondown,448,0,AM103,9:16:30,194,8000,lbuttondown,271,0,AM103,9:16:30,196,9000,0,0,0,AM103,22:53:47,2,6000,lbuttondown,352,0,PM103,22:53:47,4,9000,lbuttondown,355,0,PM103,22:53:47,6,9000,lbuttondown,301,0,PM103,22:53:47,8,7000,lbuttondown,322,0,PM103,22:53:47,10,6000,lbuttondown,334,0,PM103,22:53:47,12,4000,lbuttondown,409,0,PM103,22:53:47,14,1000,lbuttondown,370,0,PM103,22:53:47,16,8000,lbuttondown,268,0,PM103,22:53:47,18,10000,lbuttondown,274,0,PM103,22:53:47,20,7000,lbuttondown,297,0,PM103,22:53:47,22,1000,lbuttondown,350,0,PM103,22:53:47,24,10000,lbuttondown,265,0,PM103,22:53:47,26,8000,lbuttondown,263,0,PM103,22:53:47,28,9000,lbuttondown,270,0,PM103,22:53:47,30,5000,lbuttondown,332,0,PM103,22:53:47,32,6000,lbuttondown,288,0,PM103,22:53:47,34,2000,lbuttondown,469,0,PM103,22:53:47,36,6000,lbuttondown,291,0,PM103,22:53:47,38,1000,lbuttondown,361,0,PM103,22:53:47,40,4000,lbuttondown,291,0,PM103,22:53:47,42,5000,lbuttondown,281,0,PM103,22:53:47,44,10000,lbuttondown,310,0,PM103,22:53:47,46,7000,lbuttondown,299,0,PM103,22:53:47,48,4000,lbuttondown,312,0,PM103,22:53:47,50,1000,lbuttondown,333,0,PM103,22:53:47,52,9000,lbuttondown,264,0,PM103,22:53:47,54,2000,lbuttondown,335,0,PM103,22:53:47,56,5000,lbuttondown,346,0,PM103,22:53:47,58,5000,lbuttondown,277,0,PM103,22:53:47,60,7000,lbuttondown,251,0,PM103,22:53:47,62,2000,lbuttondown,330,0,PM103,22:53:47,64,4000,lbuttondown,295,0,PM103,22:53:47,66,5000,lbuttondown,324,0,PM103,22:53:47,68,10000,lbuttondown,280,0,PM103,22:53:47,70,6000,lbuttondown,454,0,PM103,22:53:47,72,4000,lbuttondown,301,0,PM103,22:53:47,74,8000,lbuttondown,241,0,PM103,22:53:47,76,7000,lbuttondown,288,0,PM103,22:53:47,78,9000,lbuttondown,254,0,PM103,22:53:47,80,4000,lbuttondown,349,0,PM103,22:53:47,82,1000,lbuttondown,368,0,PM103,22:53:47,84,2000,lbuttondown,450,0,PM103,22:53:47,86,8000,lbuttondown,312,0,PM103,22:53:47,88,6000,lbuttondown,366,0,PM103,22:53:47,90,6000,lbuttondown,392,0,PM103,22:53:47,92,2000,lbuttondown,361,0,PM103,22:53:47,94,6000,lbuttondown,276,0,PM103,22:53:47,96,9000,lbuttondown,290,0,PM103,22:53:47,98,3000,lbuttondown,311,0,PM103,22:53:47,100,1000,lbuttondown,380,0,PM103,22:53:47,102,9000,lbuttondown,326,0,PM103,22:53:47,104,8000,lbuttondown,378,0,PM103,22:53:47,106,7000,lbuttondown,308,0,PM103,22:53:47,108,4000,lbuttondown,344,0,PM103,22:53:47,110,2000,lbuttondown,396,0,PM103,22:53:47,112,8000,lbuttondown,253,0,PM103,22:53:47,114,4000,lbuttondown,284,0,PM103,22:53:47,116,10000,lbuttondown,305,0,PM103,22:53:47,118,2000,lbuttondown,310,0,PM103,22:53:47,120,10000,lbuttondown,330,0,PM103,22:53:47,122,3000,lbuttondown,302,0,PM103,22:53:47,124,1000,lbuttondown,299,0,PM103,22:53:47,126,4000,lbuttondown,440,0,PM103,22:53:47,128,4000,lbuttondown,320,0,PM103,22:53:47,130,4000,lbuttondown,284,0,PM103,22:53:47,132,8000,lbuttondown,473,0,PM103,22:53:47,134,10000,lbuttondown,279,0,PM103,22:53:47,136,5000,lbuttondown,309,0,PM103,22:53:47,138,1000,lbuttondown,346,0,PM103,22:53:47,140,10000,lbuttondown,317,0,PM103,22:53:47,142,7000,lbuttondown,305,0,PM103,22:53:47,144,9000,lbuttondown,325,0,PM103,22:53:47,146,7000,lbuttondown,305,0,PM103,22:53:47,148,2000,lbuttondown,350,0,PM103,22:53:47,150,9000,lbuttondown,313,0,PM103,22:53:47,152,3000,lbuttondown,373,0,PM103,22:53:47,154,2000,lbuttondown,351,0,PM103,22:53:47,156,9000,lbuttondown,290,0,PM103,22:53:47,158,4000,lbuttondown,343,0,PM103,22:53:47,160,6000,lbuttondown,291,0,PM103,22:53:47,162,1000,lbuttondown,384,0,PM103,22:53:47,164,6000,lbuttondown,289,0,PM103,22:53:47,166,2000,lbuttondown,295,0,PM103,22:53:47,168,10000,lbuttondown,308,0,PM103,22:53:47,170,5000,lbuttondown,329,0,PM103,22:53:47,172,8000,lbuttondown,261,0,PM103,22:53:47,174,1000,lbuttondown,411,0,PM103,22:53:47,176,8000,lbuttondown,268,0,PM103,22:53:47,178,2000,lbuttondown,330,0,PM103,22:53:47,180,4000,lbuttondown,278,0,PM103,22:53:47,182,8000,lbuttondown,293,0,PM103,22:53:47,184,5000,lbuttondown,298,0,PM103,22:53:47,186,7000,lbuttondown,263,0,PM104,9:14:17,2,4000,lbuttondown,250,0,AM104,9:14:17,4,4000,lbuttondown,224,0,AM104,9:14:17,6,3000,lbuttondown,208,0,AM104,9:14:17,8,9000,lbuttondown,273,0,AM104,9:14:17,10,7000,lbuttondown,311,0,AM104,9:14:17,12,7000,lbuttondown,243,0,AM104,9:14:17,14,1000,lbuttondown,315,0,AM104,9:14:17,16,9000,lbuttondown,239,0,AM104,9:14:17,18,2000,lbuttondown,263,0,AM104,9:14:17,20,5000,lbuttondown,245,0,AM104,9:14:17,22,3000,lbuttondown,253,0,AM104,9:14:17,24,5000,lbuttondown,260,0,AM104,9:14:17,26,8000,lbuttondown,234,0,AM104,9:14:17,28,6000,lbuttondown,233,0,AM104,9:14:17,30,10000,lbuttondown,241,0,AM104,9:14:17,32,6000,lbuttondown,288,0,AM104,9:14:17,34,6000,lbuttondown,277,0,AM104,9:14:17,36,5000,lbuttondown,243,0,AM104,9:14:17,38,8000,lbuttondown,251,0,AM104,9:14:17,40,1000,lbuttondown,234,0,AM104,9:14:17,42,3000,lbuttondown,257,0,AM104,9:14:17,44,5000,lbuttondown,279,0,AM104,9:14:17,46,2000,lbuttondown,246,0,AM104,9:14:17,48,3000,lbuttondown,229,0,AM104,9:14:17,50,8000,lbuttondown,261,0,AM104,9:14:17,52,7000,lbuttondown,235,0,AM104,9:14:17,54,5000,lbuttondown,267,0,AM104,9:14:17,56,6000,lbuttondown,265,0,AM104,9:14:17,58,9000,lbuttondown,287,0,AM104,9:14:17,60,5000,lbuttondown,261,0,AM104,9:14:17,62,9000,lbuttondown,259,0,AM104,9:14:17,64,7000,lbuttondown,314,0,AM104,9:14:17,66,8000,lbuttondown,294,0,AM104,9:14:17,68,2000,lbuttondown,292,0,AM104,9:14:17,70,9000,lbuttondown,217,0,AM104,9:14:17,72,7000,lbuttondown,225,0,AM104,9:14:17,74,6000,lbuttondown,281,0,AM104,9:14:17,76,3000,lbuttondown,311,0,AM104,9:14:17,78,5000,lbuttondown,260,0,AM104,9:14:17,80,6000,lbuttondown,267,0,AM104,9:14:17,82,2000,lbuttondown,265,0,AM104,9:14:17,84,2000,lbuttondown,279,0,AM104,9:14:17,86,8000,lbuttondown,245,0,AM104,9:14:17,88,9000,lbuttondown,284,0,AM104,9:14:17,90,7000,lbuttondown,258,0,AM104,9:14:17,92,6000,lbuttondown,248,0,AM104,9:14:17,94,10000,lbuttondown,272,0,AM104,9:14:17,96,9000,lbuttondown,270,0,AM104,9:14:17,98,6000,lbuttondown,292,0,AM104,9:14:17,100,3000,lbuttondown,377,0,AM104,9:14:17,102,4000,lbuttondown,243,0,AM104,9:14:17,104,6000,lbuttondown,234,0,AM104,9:14:17,106,4000,lbuttondown,266,0,AM104,9:14:17,108,5000,lbuttondown,272,0,AM104,9:14:17,110,1000,lbuttondown,278,0,AM104,9:14:17,112,10000,lbuttondown,260,0,AM104,9:14:17,114,8000,lbuttondown,259,0,AM104,9:14:17,116,8000,lbuttondown,258,0,AM104,9:14:17,118,7000,lbuttondown,272,0,AM104,9:14:17,120,6000,lbuttondown,262,0,AM104,9:14:17,122,1000,lbuttondown,277,0,AM104,9:14:17,124,4000,lbuttondown,267,0,AM104,9:14:17,126,2000,lbuttondown,281,0,AM104,9:14:17,128,6000,lbuttondown,303,0,AM104,9:14:17,130,3000,lbuttondown,252,0,AM104,9:14:17,132,7000,lbuttondown,330,0,AM104,9:14:17,134,9000,lbuttondown,254,0,AM104,9:14:17,136,8000,lbuttondown,269,0,AM104,9:14:17,138,5000,lbuttondown,243,0,AM104,9:14:17,140,8000,lbuttondown,298,0,AM104,9:14:17,142,1000,lbuttondown,280,0,AM104,9:14:17,144,10000,lbuttondown,253,0,AM104,9:14:17,146,10000,lbuttondown,252,0,AM104,9:14:17,148,5000,lbuttondown,259,0,AM104,9:14:17,150,1000,lbuttondown,242,0,AM104,9:14:17,152,8000,lbuttondown,241,0,AM104,9:14:17,154,6000,lbuttondown,328,0,AM104,9:14:17,156,1000,lbuttondown,260,0,AM104,9:14:17,158,9000,lbuttondown,267,0,AM104,9:14:17,160,10000,lbuttondown,257,0,AM104,9:14:17,162,9000,lbuttondown,263,0,AM104,9:14:17,164,3000,lbuttondown,334,0,AM104,9:14:17,166,9000,lbuttondown,289,0,AM104,9:14:17,168,6000,lbuttondown,263,0,AM104,9:14:17,170,8000,lbuttondown,325,0,AM104,9:14:17,172,3000,lbuttondown,378,0,AM104,9:14:17,174,9000,lbuttondown,243,0,AM104,9:14:17,176,8000,lbuttondown,291,0,AM104,9:14:17,178,1000,lbuttondown,248,0,AM104,9:14:17,180,4000,lbuttondown,439,0,AM104,9:14:17,182,7000,0,0,0,AM104,22:50:18,2,6000,lbuttondown,276,0,PM104,22:50:18,4,9000,lbuttondown,258,0,PM104,22:50:18,6,10000,lbuttondown,256,0,PM104,22:50:18,8,6000,lbuttondown,255,0,PM104,22:50:18,10,6000,lbuttondown,246,0,PM104,22:50:18,12,8000,lbuttondown,285,0,PM104,22:50:18,14,2000,lbuttondown,299,0,PM104,22:50:18,16,1000,lbuttondown,256,0,PM104,22:50:18,18,5000,lbuttondown,295,0,PM104,22:50:18,20,4000,lbuttondown,228,0,PM104,22:50:18,22,3000,lbuttondown,236,0,PM104,22:50:18,24,9000,lbuttondown,283,0,PM104,22:50:18,26,6000,lbuttondown,249,0,PM104,22:50:18,28,10000,lbuttondown,296,0,PM104,22:50:18,30,4000,lbuttondown,301,0,PM104,22:50:18,32,6000,lbuttondown,274,0,PM104,22:50:18,34,8000,lbuttondown,248,0,PM104,22:50:18,36,2000,lbuttondown,319,0,PM104,22:50:18,38,9000,lbuttondown,251,0,PM104,22:50:18,40,3000,lbuttondown,266,0,PM104,22:50:18,42,4000,lbuttondown,264,0,PM104,22:50:18,44,8000,lbuttondown,238,0,PM104,22:50:18,46,1000,lbuttondown,310,0,PM104,22:50:18,48,7000,lbuttondown,290,0,PM104,22:50:18,50,5000,lbuttondown,256,0,PM104,22:50:18,52,10000,lbuttondown,254,0,PM104,22:50:18,54,4000,lbuttondown,333,0,PM104,22:50:18,56,2000,lbuttondown,265,0,PM104,22:50:18,58,1000,lbuttondown,311,0,PM104,22:50:18,60,2000,lbuttondown,364,0,PM104,22:50:18,62,10000,lbuttondown,262,0,PM104,22:50:18,64,3000,lbuttondown,253,0,PM104,22:50:18,66,4000,lbuttondown,252,0,PM104,22:50:18,68,2000,lbuttondown,243,0,PM104,22:50:18,70,10000,lbuttondown,250,0,PM104,22:50:18,72,5000,lbuttondown,257,0,PM104,22:50:18,74,8000,lbuttondown,223,0,PM104,22:50:18,76,7000,lbuttondown,375,0,PM104,22:50:18,78,5000,lbuttondown,298,0,PM104,22:50:18,80,9000,lbuttondown,247,0,PM104,22:50:18,82,10000,lbuttondown,334,0,PM104,22:50:18,84,1000,lbuttondown,338,0,PM104,22:50:18,86,2000,lbuttondown,341,0,PM104,22:50:18,88,4000,lbuttondown,248,0,PM104,22:50:18,90,3000,lbuttondown,272,0,PM104,22:50:18,92,4000,lbuttondown,342,0,PM104,22:50:18,94,7000,lbuttondown,353,0,PM104,22:50:18,96,10000,lbuttondown,355,0,PM104,22:50:18,98,2000,lbuttondown,294,0,PM104,22:50:18,100,8000,lbuttondown,299,0,PM104,22:50:18,102,7000,lbuttondown,328,0,PM104,22:50:18,104,10000,lbuttondown,324,0,PM104,22:50:18,106,9000,lbuttondown,288,0,PM104,22:50:18,108,5000,lbuttondown,245,0,PM104,22:50:18,110,10000,lbuttondown,317,0,PM104,22:50:18,112,3000,lbuttondown,321,0,PM104,22:50:18,114,8000,lbuttondown,277,0,PM104,22:50:18,116,10000,lbuttondown,490,0,PM104,22:50:18,118,2000,lbuttondown,272,0,PM104,22:50:18,120,6000,lbuttondown,254,0,PM104,22:50:18,122,4000,lbuttondown,253,0,PM104,22:50:18,124,7000,lbuttondown,251,0,PM104,22:50:18,126,5000,lbuttondown,242,0,PM104,22:50:18,128,8000,lbuttondown,249,0,PM104,22:50:18,130,9000,lbuttondown,280,0,PM104,22:50:18,132,9000,lbuttondown,262,0,PM104,22:50:18,134,2000,lbuttondown,357,0,PM104,22:50:18,136,2000,lbuttondown,264,0,PM104,22:50:18,138,6000,lbuttondown,262,0,PM104,22:50:18,140,9000,lbuttondown,276,0,PM104,22:50:18,142,2000,lbuttondown,363,0,PM104,22:50:18,144,6000,lbuttondown,302,0,PM104,22:50:18,146,7000,lbuttondown,307,0,PM104,22:50:18,148,4000,lbuttondown,327,0,PM104,22:50:18,150,4000,lbuttondown,339,0,PM104,22:50:18,152,10000,lbuttondown,238,0,PM104,22:50:18,154,4000,lbuttondown,278,0,PM104,22:50:18,156,9000,lbuttondown,236,0,PM104,22:50:18,158,2000,lbuttondown,307,0,PM104,22:50:18,160,7000,lbuttondown,264,0,PM104,22:50:18,162,5000,lbuttondown,263,0,PM104,22:50:18,164,3000,lbuttondown,245,0,PM104,22:50:18,166,4000,lbuttondown,229,0,PM104,22:50:18,168,1000,lbuttondown,453,0,PM104,22:50:18,170,1000,lbuttondown,284,0,PM104,22:50:18,172,3000,lbuttondown,257,0,PM104,22:50:18,174,6000,lbuttondown,280,0,PM104,22:50:18,176,6000,lbuttondown,270,0,PM104,22:50:18,178,1000,lbuttondown,316,0,PM104,22:50:18,180,7000,lbuttondown,464,0,PM104,22:50:18,182,9000,lbuttondown,286,0,PM104,22:50:18,184,6000,lbuttondown,236,0,PM104,22:50:18,186,9000,0,0,0,PM105,9:26:40,2,8000,lbuttondown,302,0,AM105,9:26:40,4,6000,lbuttondown,306,0,AM105,9:26:40,6,1000,lbuttondown,326,0,AM105,9:26:40,8,10000,lbuttondown,258,0,AM105,9:26:40,10,6000,lbuttondown,273,0,AM105,9:26:40,12,10000,lbuttondown,295,0,AM105,9:26:40,14,4000,lbuttondown,316,0,AM105,9:26:40,16,2000,lbuttondown,256,0,AM105,9:26:40,18,1000,lbuttondown,271,0,AM105,9:26:40,20,7000,lbuttondown,309,0,AM105,9:26:40,22,3000,lbuttondown,274,0,AM105,9:26:40,24,8000,lbuttondown,216,0,AM105,9:26:40,26,9000,lbuttondown,264,0,AM105,9:26:40,28,6000,lbuttondown,286,0,AM105,9:26:40,30,1000,lbuttondown,340,0,AM105,9:26:40,32,1000,lbuttondown,336,0,AM105,9:26:40,34,4000,lbuttondown,339,0,AM105,9:26:40,36,5000,lbuttondown,222,0,AM105,9:26:40,38,5000,lbuttondown,254,0,AM105,9:26:40,40,4000,lbuttondown,237,0,AM105,9:26:40,42,5000,lbuttondown,252,0,AM105,9:26:40,44,6000,lbuttondown,259,0,AM105,9:26:40,46,5000,lbuttondown,281,0,AM105,9:26:40,48,9000,lbuttondown,287,0,AM105,9:26:40,50,3000,lbuttondown,317,0,AM105,9:26:40,52,7000,lbuttondown,17,0,AM105,9:26:40,54,7000,lbuttondown,297,0,AM105,9:26:40,56,7000,lbuttondown,294,0,AM105,9:26:40,58,2000,lbuttondown,363,0,AM105,9:26:40,60,8000,lbuttondown,310,0,AM105,9:26:40,62,10000,lbuttondown,259,0,AM105,9:26:40,64,8000,lbuttondown,281,0,AM105,9:26:40,66,8000,lbuttondown,239,0,AM105,9:26:40,68,10000,lbuttondown,303,0,AM105,9:26:40,70,6000,lbuttondown,387,0,AM105,9:26:40,72,8000,lbuttondown,293,0,AM105,9:26:40,74,9000,lbuttondown,307,0,AM105,9:26:40,76,7000,lbuttondown,327,0,AM105,9:26:40,78,6000,lbuttondown,283,0,AM105,9:26:40,80,4000,lbuttondown,265,0,AM105,9:26:40,82,10000,lbuttondown,279,0,AM105,9:26:40,84,2000,lbuttondown,277,0,AM105,9:26:40,86,7000,lbuttondown,491,0,AM105,9:26:40,88,9000,lbuttondown,336,0,AM105,9:26:40,90,4000,lbuttondown,276,0,AM105,9:26:40,92,6000,lbuttondown,323,0,AM105,9:26:40,94,6000,lbuttondown,327,0,AM105,9:26:40,96,8000,lbuttondown,259,0,AM105,9:26:40,98,5000,lbuttondown,265,0,AM105,9:26:40,100,5000,lbuttondown,408,0,AM105,9:26:40,102,4000,lbuttondown,329,0,AM105,9:26:40,104,6000,lbuttondown,292,0,AM105,9:26:40,106,1000,lbuttondown,362,0,AM105,9:26:40,108,5000,lbuttondown,61,0,AM105,9:26:40,110,7000,lbuttondown,419,0,AM105,9:26:40,112,7000,lbuttondown,259,0,AM105,9:26:40,114,4000,lbuttondown,274,0,AM105,9:26:40,116,9000,lbuttondown,248,0,AM105,9:26:40,118,3000,lbuttondown,239,0,AM105,9:26:40,120,9000,lbuttondown,286,0,AM105,9:26:40,122,3000,lbuttondown,396,0,AM105,9:26:40,124,1000,lbuttondown,309,0,AM105,9:26:40,126,9000,lbuttondown,306,0,AM105,9:26:40,128,4000,lbuttondown,350,0,AM105,9:26:40,130,9000,lbuttondown,257,0,AM105,9:26:40,132,2000,lbuttondown,304,0,AM105,9:26:40,134,9000,lbuttondown,252,0,AM105,9:26:40,136,1000,lbuttondown,2523,1,AM105,9:26:40,138,4000,lbuttondown,719,1,AM105,9:26:40,140,5000,lbuttondown,739,1,AM105,9:26:40,142,9000,lbuttondown,390,0,AM105,9:26:40,144,6000,lbuttondown,336,0,AM105,9:26:40,146,1000,lbuttondown,371,0,AM105,9:26:40,148,2000,lbuttondown,309,0,AM105,9:26:40,150,7000,lbuttondown,258,0,AM105,9:26:40,152,3000,lbuttondown,273,0,AM105,9:26:40,154,4000,lbuttondown,311,0,AM105,9:26:40,156,9000,lbuttondown,268,0,AM105,9:26:40,158,4000,lbuttondown,290,0,AM105,9:26:40,160,1000,lbuttondown,400,0,AM105,9:26:40,162,1000,lbuttondown,569,1,AM105,9:26:40,164,7000,lbuttondown,130,0,AM105,9:26:40,166,1000,lbuttondown,350,0,AM105,9:26:40,168,2000,lbuttondown,289,0,AM105,9:26:40,170,10000,lbuttondown,190,0,AM105,9:26:40,172,9000,lbuttondown,383,0,AM105,9:26:40,174,5000,lbuttondown,265,0,AM105,9:26:40,176,4000,lbuttondown,288,0,AM105,9:26:40,178,2000,lbuttondown,429,0,AM105,9:26:40,180,2000,lbuttondown,302,0,AM105,9:26:40,182,6000,lbuttondown,290,0,AM105,9:26:40,184,1000,lbuttondown,344,0,AM105,9:26:40,186,5000,lbuttondown,323,0,AM105,9:26:40,188,8000,lbuttondown,8,0,AM105,9:26:40,190,7000,0,0,0,AM105,22:59:30,2,8000,lbuttondown,390,0,PM105,22:59:30,4,10000,lbuttondown,343,0,PM105,22:59:30,6,8000,lbuttondown,371,0,PM105,22:59:30,8,10000,lbuttondown,364,0,PM105,22:59:30,10,7000,lbuttondown,495,0,PM105,22:59:30,12,10000,lbuttondown,356,0,PM105,22:59:30,14,2000,lbuttondown,383,0,PM105,22:59:30,16,2000,lbuttondown,377,0,PM105,22:59:30,18,4000,lbuttondown,299,0,PM105,22:59:30,20,7000,lbuttondown,392,0,PM105,22:59:30,22,1000,lbuttondown,385,0,PM105,22:59:30,24,8000,lbuttondown,362,0,PM105,22:59:30,26,10000,lbuttondown,317,0,PM105,22:59:30,28,1000,lbuttondown,457,0,PM105,22:59:30,30,7000,lbuttondown,360,0,PM105,22:59:30,32,2000,lbuttondown,435,0,PM105,22:59:30,34,6000,lbuttondown,354,0,PM105,22:59:30,36,2000,lbuttondown,429,0,PM105,22:59:30,38,6000,lbuttondown,372,0,PM105,22:59:30,40,2000,lbuttondown,503,1,PM105,22:59:30,42,4000,lbuttondown,371,0,PM105,22:59:30,44,5000,lbuttondown,325,0,PM105,22:59:30,46,9000,lbuttondown,313,0,PM105,22:59:30,48,1000,lbuttondown,406,0,PM105,22:59:30,50,1000,lbuttondown,335,0,PM105,22:59:30,52,1000,lbuttondown,322,0,PM105,22:59:30,54,10000,lbuttondown,334,0,PM105,22:59:30,56,1000,lbuttondown,377,0,PM105,22:59:30,58,4000,lbuttondown,371,0,PM105,22:59:30,60,8000,lbuttondown,349,0,PM105,22:59:30,62,4000,lbuttondown,360,0,PM105,22:59:30,64,3000,lbuttondown,426,0,PM105,22:59:30,66,3000,lbuttondown,306,0,PM105,22:59:30,68,2000,lbuttondown,535,1,PM105,22:59:30,70,9000,lbuttondown,434,0,PM105,22:59:30,72,8000,lbuttondown,378,0,PM105,22:59:30,74,9000,lbuttondown,516,1,PM105,22:59:30,76,1000,lbuttondown,360,0,PM105,22:59:30,78,8000,lbuttondown,490,0,PM105,22:59:30,80,10000,lbuttondown,312,0,PM105,22:59:30,82,7000,lbuttondown,332,0,PM105,22:59:30,84,4000,lbuttondown,360,0,PM105,22:59:30,86,8000,lbuttondown,298,0,PM105,22:59:30,88,10000,lbuttondown,312,0,PM105,22:59:30,90,4000,lbuttondown,372,0,PM105,22:59:30,92,2000,lbuttondown,326,0,PM105,22:59:30,94,6000,lbuttondown,314,0,PM105,22:59:30,96,5000,lbuttondown,359,0,PM105,22:59:30,98,6000,lbuttondown,298,0,PM105,22:59:30,100,8000,lbuttondown,359,0,PM105,22:59:30,102,7000,lbuttondown,313,0,PM105,22:59:30,104,1000,lbuttondown,414,0,PM105,22:59:30,106,10000,lbuttondown,351,0,PM105,22:59:30,108,5000,lbuttondown,394,0,PM105,22:59:30,110,2000,lbuttondown,372,0,PM105,22:59:30,112,10000,lbuttondown,429,0,PM105,22:59:30,114,9000,lbuttondown,2181,1,PM105,22:59:30,116,5000,lbuttondown,496,0,PM105,22:59:30,118,1000,lbuttondown,597,1,PM105,22:59:30,120,7000,lbuttondown,326,0,PM105,22:59:30,122,7000,lbuttondown,378,0,PM105,22:59:30,124,7000,lbuttondown,228,0,PM105,22:59:30,126,4000,lbuttondown,372,0,PM105,22:59:30,128,2000,lbuttondown,254,0,PM105,22:59:30,130,2000,lbuttondown,277,0,PM105,22:59:30,132,7000,lbuttondown,347,0,PM105,22:59:30,134,10000,lbuttondown,318,0,PM105,22:59:30,136,1000,lbuttondown,418,0,PM105,22:59:30,138,8000,lbuttondown,362,0,PM105,22:59:30,140,5000,lbuttondown,357,0,PM105,22:59:30,142,2000,lbuttondown,335,0,PM105,22:59:30,144,5000,lbuttondown,331,0,PM105,22:59:30,146,1000,lbuttondown,367,0,PM105,22:59:30,148,4000,lbuttondown,465,0,PM105,22:59:30,150,10000,lbuttondown,367,0,PM105,22:59:30,152,4000,lbuttondown,569,1,PM105,22:59:30,154,5000,lbuttondown,412,0,PM105,22:59:30,156,2000,lbuttondown,581,1,PM105,22:59:30,158,9000,lbuttondown,399,0,PM105,22:59:30,160,2000,lbuttondown,464,0,PM105,22:59:30,162,2000,lbuttondown,463,0,PM105,22:59:30,164,6000,lbuttondown,549,1,PM105,22:59:30,166,1000,lbuttondown,496,0,PM105,22:59:30,168,7000,lbuttondown,366,0,PM105,22:59:30,170,5000,lbuttondown,472,0,PM105,22:59:30,172,8000,lbuttondown,327,0,PM105,22:59:30,174,9000,lbuttondown,402,0,PM105,22:59:30,176,4000,lbuttondown,387,0,PM105,22:59:30,178,1000,lbuttondown,341,0,PM105,22:59:30,180,3000,lbuttondown,336,0,PM105,22:59:30,182,2000,lbuttondown,299,0,PM105,22:59:30,184,1000,lbuttondown,304,0,PM105,22:59:30,186,2000,lbuttondown,349,0,PM105,22:59:30,188,8000,lbuttondown,336,0,PM105,22:59:30,190,4000,lbuttondown,379,0,PM105,22:59:30,192,7000,lbuttondown,349,0,PM105,22:59:30,194,5000,lbuttondown,424,0,PM105,22:59:30,196,1000,0,0,0,PM106,9:16:25,2,3000,lbuttondown,270,0,AM106,9:16:25,4,1000,lbuttondown,276,0,AM106,9:16:25,6,1000,lbuttondown,242,0,AM106,9:16:25,8,10000,lbuttondown,417,0,AM106,9:16:25,10,2000,lbuttondown,297,0,AM106,9:16:25,12,5000,lbuttondown,303,0,AM106,9:16:25,14,10000,lbuttondown,315,0,AM106,9:16:25,16,10000,lbuttondown,432,0,AM106,9:16:25,18,3000,lbuttondown,328,0,AM106,9:16:25,20,7000,lbuttondown,492,0,AM106,9:16:25,22,2000,lbuttondown,481,0,AM106,9:16:25,24,2000,lbuttondown,343,0,AM106,9:16:25,26,7000,lbuttondown,547,1,AM106,9:16:25,28,5000,lbuttondown,518,1,AM106,9:16:25,30,8000,lbuttondown,298,0,AM106,9:16:25,32,1000,lbuttondown,359,0,AM106,9:16:25,34,1000,lbuttondown,290,0,AM106,9:16:25,36,2000,lbuttondown,271,0,AM106,9:16:25,38,7000,lbuttondown,365,0,AM106,9:16:25,40,1000,lbuttondown,488,0,AM106,9:16:25,42,1000,lbuttondown,477,0,AM106,9:16:25,44,7000,lbuttondown,267,0,AM106,9:16:25,46,7000,lbuttondown,241,0,AM106,9:16:25,48,5000,lbuttondown,225,0,AM106,9:16:25,50,10000,lbuttondown,272,0,AM106,9:16:25,52,6000,lbuttondown,278,0,AM106,9:16:25,54,4000,lbuttondown,421,0,AM106,9:16:25,56,2000,lbuttondown,261,0,AM106,9:16:25,58,2000,lbuttondown,267,0,AM106,9:16:25,60,7000,lbuttondown,425,0,AM106,9:16:25,62,2000,lbuttondown,729,1,AM106,9:16:25,64,1000,lbuttondown,589,1,AM106,9:16:25,66,6000,lbuttondown,302,0,AM106,9:16:25,68,2000,lbuttondown,347,0,AM106,9:16:25,70,9000,rbuttondown,310,0,AM106,9:16:25,72,6000,rbuttondown,259,0,AM106,9:16:25,74,4000,lbuttondown,306,0,AM106,9:16:25,76,8000,lbuttondown,342,0,AM106,9:16:25,78,8000,lbuttondown,298,0,AM106,9:16:25,80,1000,lbuttondown,399,0,AM106,9:16:25,82,9000,lbuttondown,256,0,AM106,9:16:25,84,2000,lbuttondown,302,0,AM106,9:16:25,86,5000,lbuttondown,267,0,AM106,9:16:25,88,5000,lbuttondown,265,0,AM106,9:16:25,90,6000,lbuttondown,280,0,AM106,9:16:25,92,6000,lbuttondown,302,0,AM106,9:16:25,94,2000,lbuttondown,314,0,AM106,9:16:25,96,5000,lbuttondown,335,0,AM106,9:16:25,98,1000,lbuttondown,778,1,AM106,9:16:25,100,10000,lbuttondown,412,0,AM106,9:16:25,102,7000,lbuttondown,277,0,AM106,9:16:25,104,9000,lbuttondown,259,0,AM106,9:16:25,106,7000,lbuttondown,466,0,AM106,9:16:25,108,9000,lbuttondown,280,0,AM106,9:16:25,110,5000,lbuttondown,302,0,AM106,9:16:25,112,6000,lbuttondown,355,0,AM106,9:16:25,114,6000,lbuttondown,278,0,AM106,9:16:25,116,4000,lbuttondown,460,0,AM106,9:16:25,118,7000,lbuttondown,274,0,AM106,9:16:25,120,1000,lbuttondown,384,0,AM106,9:16:25,122,10000,lbuttondown,233,0,AM106,9:16:25,124,8000,lbuttondown,281,0,AM106,9:16:25,126,7000,lbuttondown,431,0,AM106,9:16:25,128,1000,lbuttondown,895,1,AM106,9:16:25,130,8000,lbuttondown,340,0,AM106,9:16:25,132,8000,lbuttondown,487,0,AM106,9:16:25,134,6000,lbuttondown,317,0,AM106,9:16:25,136,1000,lbuttondown,337,0,AM106,9:16:25,138,3000,lbuttondown,365,0,AM106,9:16:25,140,5000,rbuttondown,280,0,AM106,9:16:25,142,3000,lbuttondown,349,0,AM106,9:16:25,144,4000,lbuttondown,368,0,AM106,9:16:25,146,8000,lbuttondown,274,0,AM106,9:16:25,148,3000,lbuttondown,368,0,AM106,9:16:25,150,2000,lbuttondown,466,0,AM106,9:16:25,152,4000,lbuttondown,408,0,AM106,9:16:25,154,5000,lbuttondown,233,0,AM106,9:16:25,156,10000,lbuttondown,256,0,AM106,9:16:25,158,1000,lbuttondown,335,0,AM106,9:16:25,160,10000,lbuttondown,258,0,AM106,9:16:25,162,4000,lbuttondown,273,0,AM106,9:16:25,164,6000,lbuttondown,303,0,AM106,9:16:25,166,9000,lbuttondown,219,0,AM106,9:16:25,168,4000,lbuttondown,379,0,AM106,9:16:25,170,1000,lbuttondown,317,0,AM106,9:16:25,172,10000,lbuttondown,257,0,AM106,9:16:25,174,1000,lbuttondown,560,1,AM106,9:16:25,176,10000,lbuttondown,299,0,AM106,9:16:25,178,4000,lbuttondown,328,0,AM106,9:16:25,180,8000,lbuttondown,276,0,AM106,9:16:25,182,5000,lbuttondown,259,0,AM106,9:16:25,184,4000,lbuttondown,425,0,AM106,9:16:25,186,5000,lbuttondown,257,0,AM106,9:16:25,188,6000,lbuttondown,240,0,AM106,9:16:25,190,1000,lbuttondown,399,0,AM106,9:16:25,192,5000,lbuttondown,336,0,AM106,9:16:25,194,10000,lbuttondown,243,0,AM106,9:16:25,196,2000,lbuttondown,355,0,AM106,9:16:25,198,10000,0,0,0,AM106,22:50:11,2,7000,lbuttondown,316,0,PM106,22:50:11,4,2000,lbuttondown,281,0,PM106,22:50:11,6,2000,lbuttondown,255,0,PM106,22:50:11,8,4000,lbuttondown,245,0,PM106,22:50:11,10,9000,lbuttondown,285,0,PM106,22:50:11,12,3000,lbuttondown,242,0,PM106,22:50:11,14,7000,lbuttondown,241,0,PM106,22:50:11,16,10000,lbuttondown,296,0,PM106,22:50:11,18,10000,lbuttondown,222,0,PM106,22:50:11,20,4000,lbuttondown,271,0,PM106,22:50:11,22,1000,lbuttondown,261,0,PM106,22:50:11,24,8000,lbuttondown,283,0,PM106,22:50:11,26,8000,lbuttondown,248,0,PM106,22:50:11,28,7000,lbuttondown,248,0,PM106,22:50:11,30,5000,lbuttondown,231,0,PM106,22:50:11,32,4000,lbuttondown,263,0,PM106,22:50:11,34,9000,lbuttondown,230,0,PM106,22:50:11,36,8000,lbuttondown,270,0,PM106,22:50:11,38,1000,lbuttondown,420,0,PM106,22:50:11,40,7000,lbuttondown,412,0,PM106,22:50:11,42,6000,lbuttondown,228,0,PM106,22:50:11,44,4000,lbuttondown,260,0,PM106,22:50:11,46,7000,lbuttondown,267,0,PM106,22:50:11,48,8000,lbuttondown,409,0,PM106,22:50:11,50,6000,lbuttondown,250,0,PM106,22:50:11,52,9000,lbuttondown,224,0,PM106,22:50:11,54,5000,lbuttondown,272,0,PM106,22:50:11,56,3000,lbuttondown,278,0,PM106,22:50:11,58,2000,lbuttondown,364,0,PM106,22:50:11,60,1000,lbuttondown,263,0,PM106,22:50:11,62,6000,lbuttondown,230,0,PM106,22:50:11,64,7000,lbuttondown,238,0,PM106,22:50:11,66,5000,lbuttondown,277,0,PM106,22:50:11,68,7000,lbuttondown,243,0,PM106,22:50:11,70,5000,lbuttondown,218,0,PM106,22:50:11,72,4000,lbuttondown,218,0,PM106,22:50:11,74,4000,lbuttondown,234,0,PM106,22:50:11,76,8000,lbuttondown,250,0,PM106,22:50:11,78,4000,lbuttondown,256,0,PM106,22:50:11,80,5000,lbuttondown,247,0,PM106,22:50:11,82,2000,lbuttondown,350,0,PM106,22:50:11,84,3000,lbuttondown,273,0,PM106,22:50:11,86,5000,lbuttondown,239,0,PM106,22:50:11,88,6000,lbuttondown,238,0,PM106,22:50:11,90,8000,lbuttondown,230,0,PM106,22:50:11,92,2000,lbuttondown,429,0,PM106,22:50:11,94,10000,lbuttondown,230,0,PM106,22:50:11,96,9000,lbuttondown,238,0,PM106,22:50:11,98,3000,lbuttondown,445,0,PM106,22:50:11,100,8000,lbuttondown,260,0,PM106,22:50:11,102,5000,lbuttondown,235,0,PM106,22:50:11,104,5000,lbuttondown,258,0,PM106,22:50:11,106,9000,lbuttondown,241,0,PM106,22:50:11,108,3000,lbuttondown,256,0,PM106,22:50:11,110,4000,lbuttondown,239,0,PM106,22:50:11,112,5000,lbuttondown,238,0,PM106,22:50:11,114,10000,lbuttondown,245,0,PM106,22:50:11,116,5000,lbuttondown,245,0,PM106,22:50:11,118,4000,lbuttondown,308,0,PM106,22:50:11,120,4000,lbuttondown,241,0,PM106,22:50:11,122,7000,lbuttondown,272,0,PM106,22:50:11,124,5000,lbuttondown,222,0,PM106,22:50:11,126,5000,lbuttondown,246,0,PM106,22:50:11,128,1000,lbuttondown,349,0,PM106,22:50:11,130,3000,lbuttondown,272,0,PM106,22:50:11,132,1000,lbuttondown,254,0,PM106,22:50:11,134,9000,lbuttondown,237,0,PM106,22:50:11,136,5000,lbuttondown,268,0,PM106,22:50:11,138,10000,lbuttondown,258,0,PM106,22:50:11,140,7000,lbuttondown,265,0,PM106,22:50:11,142,5000,lbuttondown,239,0,PM106,22:50:11,144,7000,lbuttondown,494,0,PM106,22:50:11,146,8000,lbuttondown,276,0,PM106,22:50:11,148,2000,lbuttondown,386,0,PM106,22:50:11,150,6000,lbuttondown,283,0,PM106,22:50:11,152,9000,lbuttondown,833,1,PM106,22:50:11,154,5000,lbuttondown,288,0,PM106,22:50:11,156,8000,lbuttondown,269,0,PM106,22:50:11,158,1000,lbuttondown,411,0,PM106,22:50:11,160,7000,lbuttondown,268,0,PM106,22:50:11,162,1000,lbuttondown,386,0,PM106,22:50:11,164,1000,lbuttondown,275,0,PM106,22:50:11,166,5000,lbuttondown,265,0,PM106,22:50:11,168,7000,lbuttondown,232,0,PM106,22:50:11,170,7000,lbuttondown,256,0,PM106,22:50:11,172,4000,lbuttondown,231,0,PM106,22:50:11,174,5000,lbuttondown,270,0,PM106,22:50:11,176,3000,lbuttondown,301,0,PM106,22:50:11,178,6000,lbuttondown,273,0,PM106,22:50:11,180,3000,lbuttondown,319,0,PM106,22:50:11,182,6000,lbuttondown,275,0,PM106,22:50:11,184,4000,lbuttondown,273,0,PM106,22:50:11,186,6000,lbuttondown,263,0,PM106,22:50:11,188,4000,lbuttondown,254,0,PM106,22:50:11,190,3000,lbuttondown,420,0,PM106,22:50:11,192,10000,0,0,0,PM107,9:21:30,2,9000,lbuttondown,260,0,AM107,9:21:30,4,9000,lbuttondown,267,0,AM107,9:21:30,6,10000,lbuttondown,249,0,AM107,9:21:30,8,4000,lbuttondown,304,0,AM107,9:21:30,10,7000,lbuttondown,269,0,AM107,9:21:30,12,9000,lbuttondown,283,0,AM107,9:21:30,14,1000,lbuttondown,384,0,AM107,9:21:30,16,6000,lbuttondown,290,0,AM107,9:21:30,18,10000,lbuttondown,287,0,AM107,9:21:30,20,3000,lbuttondown,268,0,AM107,9:21:30,22,3000,lbuttondown,290,0,AM107,9:21:30,24,6000,lbuttondown,271,0,AM107,9:21:30,26,7000,lbuttondown,269,0,AM107,9:21:30,28,10000,lbuttondown,275,0,AM107,9:21:30,30,3000,lbuttondown,306,0,AM107,9:21:30,32,7000,lbuttondown,263,0,AM107,9:21:30,34,10000,lbuttondown,246,0,AM107,9:21:30,36,7000,lbuttondown,285,0,AM107,9:21:30,38,2000,lbuttondown,515,1,AM107,9:21:30,40,10000,lbuttondown,287,0,AM107,9:21:30,42,8000,lbuttondown,301,0,AM107,9:21:30,44,4000,lbuttondown,265,0,AM107,9:21:30,46,2000,lbuttondown,296,0,AM107,9:21:30,48,7000,lbuttondown,293,0,AM107,9:21:30,50,9000,lbuttondown,275,0,AM107,9:21:30,52,4000,lbuttondown,305,0,AM107,9:21:30,54,10000,lbuttondown,309,0,AM107,9:21:30,56,7000,lbuttondown,283,0,AM107,9:21:30,58,7000,lbuttondown,336,0,AM107,9:21:30,60,8000,lbuttondown,283,0,AM107,9:21:30,62,6000,lbuttondown,305,0,AM107,9:21:30,64,6000,lbuttondown,301,0,AM107,9:21:30,66,8000,lbuttondown,274,0,AM107,9:21:30,68,10000,lbuttondown,296,0,AM107,9:21:30,70,8000,lbuttondown,285,0,AM107,9:21:30,72,10000,lbuttondown,315,0,AM107,9:21:30,74,9000,lbuttondown,287,0,AM107,9:21:30,76,3000,lbuttondown,373,0,AM107,9:21:30,78,5000,lbuttondown,295,0,AM107,9:21:30,80,6000,lbuttondown,300,0,AM107,9:21:30,82,4000,lbuttondown,273,0,AM107,9:21:30,84,2000,lbuttondown,351,0,AM107,9:21:30,86,3000,lbuttondown,313,0,AM107,9:21:30,88,10000,lbuttondown,278,0,AM107,9:21:30,90,5000,lbuttondown,308,0,AM107,9:21:30,92,9000,lbuttondown,296,0,AM107,9:21:30,94,4000,lbuttondown,350,0,AM107,9:21:30,96,6000,lbuttondown,296,0,AM107,9:21:30,98,10000,lbuttondown,302,0,AM107,9:21:30,100,2000,lbuttondown,355,0,AM107,9:21:30,102,6000,lbuttondown,301,0,AM107,9:21:30,104,2000,lbuttondown,482,0,AM107,9:21:30,106,2000,lbuttondown,504,1,AM107,9:21:30,108,9000,lbuttondown,332,0,AM107,9:21:30,110,4000,lbuttondown,376,0,AM107,9:21:30,112,5000,lbuttondown,370,0,AM107,9:21:30,114,10000,lbuttondown,316,0,AM107,9:21:30,116,3000,lbuttondown,352,0,AM107,9:21:30,118,2000,lbuttondown,282,0,AM107,9:21:30,120,2000,lbuttondown,672,1,AM107,9:21:30,122,4000,lbuttondown,398,0,AM107,9:21:30,124,4000,lbuttondown,271,0,AM107,9:21:30,126,1000,lbuttondown,333,0,AM107,9:21:30,128,1000,lbuttondown,360,0,AM107,9:21:30,130,4000,lbuttondown,291,0,AM107,9:21:30,132,7000,lbuttondown,304,0,AM107,9:21:30,134,5000,lbuttondown,573,1,AM107,9:21:30,136,9000,lbuttondown,343,0,AM107,9:21:30,138,4000,lbuttondown,290,0,AM107,9:21:30,140,2000,lbuttondown,352,0,AM107,9:21:30,142,1000,lbuttondown,282,0,AM107,9:21:30,144,6000,lbuttondown,344,0,AM107,9:21:30,146,2000,lbuttondown,339,0,AM107,9:21:30,148,4000,lbuttondown,350,0,AM107,9:21:30,150,8000,lbuttondown,337,0,AM107,9:21:30,152,10000,lbuttondown,340,0,AM107,9:21:30,154,1000,lbuttondown,312,0,AM107,9:21:30,156,4000,lbuttondown,308,0,AM107,9:21:30,158,6000,lbuttondown,353,0,AM107,9:21:30,160,3000,lbuttondown,284,0,AM107,9:21:30,162,2000,lbuttondown,361,0,AM107,9:21:30,164,8000,lbuttondown,324,0,AM107,9:21:30,166,8000,lbuttondown,328,0,AM107,9:21:30,168,5000,lbuttondown,308,0,AM107,9:21:30,170,6000,lbuttondown,328,0,AM107,9:21:30,172,7000,lbuttondown,348,0,AM107,9:21:30,174,1000,lbuttondown,520,1,AM107,9:21:30,176,2000,lbuttondown,396,0,AM107,9:21:30,178,9000,lbuttondown,309,0,AM107,9:21:30,180,7000,lbuttondown,329,0,AM107,9:21:30,182,2000,lbuttondown,373,0,AM107,9:21:30,184,1000,lbuttondown,304,0,AM107,9:21:30,186,10000,0,0,0,AM107,22:50:44,2,5000,lbuttondown,274,0,PM107,22:50:44,4,10000,lbuttondown,336,0,PM107,22:50:44,6,9000,lbuttondown,260,0,PM107,22:50:44,8,1000,lbuttondown,354,0,PM107,22:50:44,10,7000,lbuttondown,277,0,PM107,22:50:44,12,3000,lbuttondown,291,0,PM107,22:50:44,14,6000,lbuttondown,376,0,PM107,22:50:44,16,1000,lbuttondown,290,0,PM107,22:50:44,18,9000,lbuttondown,239,0,PM107,22:50:44,20,2000,lbuttondown,255,0,PM107,22:50:44,22,7000,lbuttondown,262,0,PM107,22:50:44,24,2000,lbuttondown,284,0,PM107,22:50:44,26,8000,lbuttondown,313,0,PM107,22:50:44,28,2000,lbuttondown,294,0,PM107,22:50:44,30,8000,lbuttondown,283,0,PM107,22:50:44,32,1000,lbuttondown,369,0,PM107,22:50:44,34,8000,lbuttondown,363,0,PM107,22:50:44,36,5000,lbuttondown,317,0,PM107,22:50:44,38,8000,lbuttondown,329,0,PM107,22:50:44,40,1000,lbuttondown,397,0,PM107,22:50:44,42,4000,lbuttondown,263,0,PM107,22:50:44,44,5000,lbuttondown,277,0,PM107,22:50:44,46,4000,lbuttondown,275,0,PM107,22:50:44,48,1000,lbuttondown,386,0,PM107,22:50:44,50,8000,lbuttondown,283,0,PM107,22:50:44,52,6000,lbuttondown,320,0,PM107,22:50:44,54,6000,lbuttondown,260,0,PM107,22:50:44,56,7000,lbuttondown,259,0,PM107,22:50:44,58,2000,lbuttondown,314,0,PM107,22:50:44,60,10000,lbuttondown,254,0,PM107,22:50:44,62,6000,lbuttondown,317,0,PM107,22:50:44,64,10000,lbuttondown,329,0,PM107,22:50:44,66,9000,lbuttondown,317,0,PM107,22:50:44,68,1000,lbuttondown,353,0,PM107,22:50:44,70,7000,lbuttondown,251,0,PM107,22:50:44,72,7000,lbuttondown,250,0,PM107,22:50:44,74,8000,lbuttondown,249,0,PM107,22:50:44,76,5000,lbuttondown,272,0,PM107,22:50:44,78,5000,lbuttondown,254,0,PM107,22:50:44,80,6000,lbuttondown,277,0,PM107,22:50:44,82,4000,lbuttondown,323,0,PM107,22:50:44,84,6000,lbuttondown,247,0,PM107,22:50:44,86,10000,lbuttondown,318,0,PM107,22:50:44,88,1000,lbuttondown,394,0,PM107,22:50:44,90,5000,lbuttondown,347,0,PM107,22:50:44,92,4000,lbuttondown,343,0,PM107,22:50:44,94,5000,lbuttondown,282,0,PM107,22:50:44,96,8000,lbuttondown,296,0,PM107,22:50:44,98,9000,lbuttondown,301,0,PM107,22:50:44,100,1000,lbuttondown,386,0,PM107,22:50:44,102,7000,lbuttondown,291,0,PM107,22:50:44,104,8000,lbuttondown,313,0,PM107,22:50:44,106,4000,lbuttondown,285,0,PM107,22:50:44,108,2000,lbuttondown,315,0,PM107,22:50:44,110,2000,lbuttondown,271,0,PM107,22:50:44,112,10000,lbuttondown,325,0,PM107,22:50:44,114,6000,lbuttondown,345,0,PM107,22:50:44,116,9000,lbuttondown,268,0,PM107,22:50:44,118,1000,lbuttondown,362,0,PM107,22:50:44,120,6000,lbuttondown,269,0,PM107,22:50:44,122,5000,lbuttondown,547,1,PM107,22:50:44,124,8000,lbuttondown,262,0,PM107,22:50:44,126,10000,lbuttondown,261,0,PM107,22:50:44,128,10000,lbuttondown,316,0,PM107,22:50:44,130,7000,lbuttondown,320,0,PM107,22:50:44,132,9000,lbuttondown,300,0,PM107,22:50:44,134,3000,lbuttondown,328,0,PM107,22:50:44,136,4000,lbuttondown,460,0,PM107,22:50:44,138,1000,lbuttondown,315,0,PM107,22:50:44,140,9000,lbuttondown,304,0,PM107,22:50:44,142,9000,lbuttondown,284,0,PM107,22:50:44,144,4000,lbuttondown,338,0,PM107,22:50:44,146,1000,lbuttondown,317,0,PM107,22:50:44,148,4000,lbuttondown,329,0,PM107,22:50:44,150,4000,lbuttondown,293,0,PM107,22:50:44,152,7000,lbuttondown,322,0,PM107,22:50:44,154,9000,lbuttondown,270,0,PM107,22:50:44,156,2000,lbuttondown,524,1,PM107,22:50:44,158,5000,lbuttondown,297,0,PM107,22:50:44,160,8000,lbuttondown,326,0,PM107,22:50:44,162,3000,lbuttondown,322,0,PM107,22:50:44,164,7000,lbuttondown,278,0,PM107,22:50:44,166,1000,lbuttondown,372,0,PM107,22:50:44,168,1000,lbuttondown,382,0,PM107,22:50:44,170,1000,lbuttondown,264,0,PM107,22:50:44,172,8000,lbuttondown,335,0,PM107,22:50:44,174,6000,lbuttondown,298,0,PM107,22:50:44,176,8000,lbuttondown,303,0,PM107,22:50:44,178,4000,lbuttondown,292,0,PM107,22:50:44,180,7000,lbuttondown,314,0,PM107,22:50:44,182,10000,lbuttondown,358,0,PM107,22:50:44,184,9000,lbuttondown,369,0,PM107,22:50:44,186,5000,lbuttondown,331,0,PM108,9:17:25,2,1000,lbuttondown,530,1,AM108,9:17:25,4,9000,lbuttondown,406,0,AM108,9:17:25,6,7000,lbuttondown,350,0,AM108,9:17:25,8,10000,lbuttondown,321,0,AM108,9:17:25,10,3000,lbuttondown,525,1,AM108,9:17:25,12,3000,lbuttondown,465,0,AM108,9:17:25,14,6000,lbuttondown,504,1,AM108,9:17:25,16,8000,lbuttondown,332,0,AM108,9:17:25,18,9000,lbuttondown,264,0,AM108,9:17:25,20,1000,lbuttondown,542,1,AM108,9:17:25,22,10000,lbuttondown,586,1,AM108,9:17:25,24,5000,lbuttondown,307,0,AM108,9:17:25,26,1000,lbuttondown,456,0,AM108,9:17:25,28,9000,lbuttondown,470,0,AM108,9:17:25,30,10000,lbuttondown,444,0,AM108,9:17:25,32,9000,lbuttondown,500,0,AM108,9:17:25,34,5000,lbuttondown,688,1,AM108,9:17:25,36,9000,lbuttondown,326,0,AM108,9:17:25,38,2000,lbuttondown,306,0,AM108,9:17:25,40,7000,lbuttondown,422,0,AM108,9:17:25,42,8000,lbuttondown,390,0,AM108,9:17:25,44,6000,lbuttondown,400,0,AM108,9:17:25,46,7000,lbuttondown,312,0,AM108,9:17:25,48,2000,lbuttondown,501,1,AM108,9:17:25,50,5000,lbuttondown,450,0,AM108,9:17:25,52,8000,lbuttondown,296,0,AM108,9:17:25,54,3000,lbuttondown,958,1,AM108,9:17:25,56,6000,lbuttondown,456,0,AM108,9:17:25,58,3000,lbuttondown,423,0,AM108,9:17:25,60,7000,lbuttondown,383,0,AM108,9:17:25,62,1000,lbuttondown,496,0,AM108,9:17:25,64,5000,lbuttondown,358,0,AM108,9:17:25,66,8000,lbuttondown,384,0,AM108,9:17:25,68,5000,lbuttondown,354,0,AM108,9:17:25,70,6000,lbuttondown,364,0,AM108,9:17:25,72,8000,lbuttondown,591,1,AM108,9:17:25,74,1000,lbuttondown,504,1,AM108,9:17:25,76,2000,lbuttondown,557,1,AM108,9:17:25,78,6000,lbuttondown,367,0,AM108,9:17:25,80,2000,lbuttondown,418,0,AM108,9:17:25,82,7000,lbuttondown,489,0,AM108,9:17:25,84,4000,lbuttondown,471,0,AM108,9:17:25,86,2000,lbuttondown,365,0,AM108,9:17:25,88,7000,lbuttondown,439,0,AM108,9:17:25,90,4000,lbuttondown,239,0,AM108,9:17:25,92,4000,lbuttondown,310,0,AM108,9:17:25,94,2000,lbuttondown,427,0,AM108,9:17:25,96,6000,lbuttondown,235,0,AM108,9:17:25,98,6000,lbuttondown,938,1,AM108,9:17:25,100,4000,lbuttondown,461,0,AM108,9:17:25,102,6000,lbuttondown,340,0,AM108,9:17:25,104,3000,lbuttondown,767,1,AM108,9:17:25,106,8000,lbuttondown,385,0,AM108,9:17:25,108,4000,lbuttondown,1155,1,AM108,9:17:25,110,1000,lbuttondown,389,0,AM108,9:17:25,112,6000,lbuttondown,303,0,AM108,9:17:25,114,8000,lbuttondown,387,0,AM108,9:17:25,116,7000,lbuttondown,341,0,AM108,9:17:25,118,3000,lbuttondown,417,0,AM108,9:17:25,120,10000,lbuttondown,385,0,AM108,9:17:25,122,10000,lbuttondown,362,0,AM108,9:17:25,124,5000,lbuttondown,933,1,AM108,9:17:25,126,3000,lbuttondown,440,0,AM108,9:17:25,128,3000,lbuttondown,616,1,AM108,9:17:25,130,7000,lbuttondown,264,0,AM108,9:17:25,132,5000,lbuttondown,239,0,AM108,9:17:25,134,6000,lbuttondown,350,0,AM108,9:17:25,136,4000,lbuttondown,353,0,AM108,9:17:25,138,4000,lbuttondown,291,0,AM108,9:17:25,140,9000,lbuttondown,553,1,AM108,9:17:25,142,4000,lbuttondown,684,1,AM108,9:17:25,144,8000,lbuttondown,617,1,AM108,9:17:25,146,2000,lbuttondown,417,0,AM108,9:17:25,148,5000,lbuttondown,377,0,AM108,9:17:25,150,7000,lbuttondown,523,1,AM108,9:17:25,152,5000,lbuttondown,319,0,AM108,9:17:25,154,2000,lbuttondown,395,0,AM108,9:17:25,156,4000,lbuttondown,332,0,AM108,9:17:25,158,6000,lbuttondown,280,0,AM108,9:17:25,160,7000,lbuttondown,590,1,AM108,9:17:25,162,7000,lbuttondown,447,0,AM108,9:17:25,164,6000,lbuttondown,399,0,AM108,9:17:25,166,6000,lbuttondown,416,0,AM108,9:17:25,168,6000,lbuttondown,400,0,AM108,9:17:25,170,5000,lbuttondown,312,0,AM108,9:17:25,172,9000,lbuttondown,277,0,AM108,9:17:25,174,5000,lbuttondown,323,0,AM108,9:17:25,176,8000,lbuttondown,375,0,AM108,9:17:25,178,7000,lbuttondown,345,0,AM108,9:17:25,180,1000,lbuttondown,404,0,AM108,9:17:25,182,6000,lbuttondown,277,0,AM108,9:17:25,184,8000,lbuttondown,244,0,AM108,9:17:25,186,7000,0,0,0,AM108,22:56:26,2,1000,lbuttondown,448,0,PM108,22:56:26,4,10000,lbuttondown,1543,1,PM108,22:56:26,6,5000,lbuttondown,627,1,PM108,22:56:26,8,8000,lbuttondown,683,1,PM108,22:56:26,10,3000,lbuttondown,440,0,PM108,22:56:26,12,10000,lbuttondown,367,0,PM108,22:56:26,14,4000,lbuttondown,337,0,PM108,22:56:26,16,9000,lbuttondown,332,0,PM108,22:56:26,18,2000,lbuttondown,448,0,PM108,22:56:26,20,7000,lbuttondown,303,0,PM108,22:56:26,22,6000,lbuttondown,301,0,PM108,22:56:26,24,6000,lbuttondown,273,0,PM108,22:56:26,26,3000,lbuttondown,575,1,PM108,22:56:26,28,9000,lbuttondown,369,0,PM108,22:56:26,30,4000,lbuttondown,523,1,PM108,22:56:26,32,8000,lbuttondown,512,1,PM108,22:56:26,34,9000,lbuttondown,420,0,PM108,22:56:26,36,10000,lbuttondown,348,0,PM108,22:56:26,38,4000,lbuttondown,328,0,PM108,22:56:26,40,6000,lbuttondown,436,0,PM108,22:56:26,42,5000,lbuttondown,331,0,PM108,22:56:26,44,10000,lbuttondown,288,0,PM108,22:56:26,46,2000,lbuttondown,645,1,PM108,22:56:26,48,5000,lbuttondown,252,0,PM108,22:56:26,50,1000,lbuttondown,443,0,PM108,22:56:26,52,3000,lbuttondown,266,0,PM108,22:56:26,54,1000,lbuttondown,376,0,PM108,22:56:26,56,3000,lbuttondown,323,0,PM108,22:56:26,58,8000,lbuttondown,270,0,PM108,22:56:26,60,8000,lbuttondown,532,1,PM108,22:56:26,62,2000,lbuttondown,568,1,PM108,22:56:26,64,3000,lbuttondown,330,0,PM108,22:56:26,66,6000,lbuttondown,342,0,PM108,22:56:26,68,8000,lbuttondown,417,0,PM108,22:56:26,70,5000,lbuttondown,505,1,PM108,22:56:26,72,6000,lbuttondown,478,0,PM108,22:56:26,74,4000,lbuttondown,724,1,PM108,22:56:26,76,2000,lbuttondown,472,0,PM108,22:56:26,78,5000,lbuttondown,350,0,PM108,22:56:26,80,9000,lbuttondown,536,1,PM108,22:56:26,82,10000,lbuttondown,332,0,PM108,22:56:26,84,5000,lbuttondown,600,1,PM108,22:56:26,86,3000,lbuttondown,368,0,PM108,22:56:26,88,10000,lbuttondown,522,1,PM108,22:56:26,90,10000,lbuttondown,382,0,PM108,22:56:26,92,3000,lbuttondown,352,0,PM108,22:56:26,94,2000,lbuttondown,274,0,PM108,22:56:26,96,10000,lbuttondown,344,0,PM108,22:56:26,98,4000,lbuttondown,332,0,PM108,22:56:26,100,9000,lbuttondown,407,0,PM108,22:56:26,102,6000,lbuttondown,344,0,PM108,22:56:26,104,1000,lbuttondown,356,0,PM108,22:56:26,106,10000,lbuttondown,302,0,PM108,22:56:26,108,4000,lbuttondown,635,1,PM108,22:56:26,110,4000,lbuttondown,402,0,PM108,22:56:26,112,8000,lbuttondown,419,0,PM108,22:56:26,114,7000,lbuttondown,491,0,PM108,22:56:26,116,9000,lbuttondown,376,0,PM108,22:56:26,118,4000,lbuttondown,506,1,PM108,22:56:26,120,5000,lbuttondown,559,1,PM108,22:56:26,122,7000,lbuttondown,489,0,PM108,22:56:26,124,10000,lbuttondown,327,0,PM108,22:56:26,126,6000,lbuttondown,267,0,PM108,22:56:26,128,10000,lbuttondown,361,0,PM108,22:56:26,130,7000,lbuttondown,379,0,PM108,22:56:26,132,6000,lbuttondown,317,0,PM108,22:56:26,134,7000,lbuttondown,345,0,PM108,22:56:26,136,8000,lbuttondown,373,0,PM108,22:56:26,138,1000,lbuttondown,359,0,PM108,22:56:26,140,1000,lbuttondown,322,0,PM108,22:56:26,142,8000,lbuttondown,398,0,PM108,22:56:26,144,5000,lbuttondown,263,0,PM108,22:56:26,146,8000,lbuttondown,390,0,PM108,22:56:26,148,9000,lbuttondown,407,0,PM108,22:56:26,150,10000,lbuttondown,480,0,PM108,22:56:26,152,3000,lbuttondown,382,0,PM108,22:56:26,154,7000,lbuttondown,392,0,PM108,22:56:26,156,1000,lbuttondown,2209,1,PM108,22:56:26,158,2000,lbuttondown,306,0,PM108,22:56:26,160,8000,lbuttondown,310,0,PM108,22:56:26,162,1000,lbuttondown,483,0,PM108,22:56:26,164,6000,lbuttondown,321,0,PM108,22:56:26,166,9000,lbuttondown,332,0,PM108,22:56:26,168,9000,lbuttondown,432,0,PM108,22:56:26,170,5000,lbuttondown,368,0,PM108,22:56:26,172,8000,lbuttondown,394,0,PM108,22:56:26,174,3000,lbuttondown,539,1,PM108,22:56:26,176,2000,0,0,0,PM109,9:25:03,2,8000,lbuttondown,522,1,AM109,9:25:03,4,1000,lbuttondown,510,1,AM109,9:25:03,6,2000,lbuttondown,362,0,AM109,9:25:03,8,10000,lbuttondown,277,0,AM109,9:25:03,10,6000,lbuttondown,331,0,AM109,9:25:03,12,3000,lbuttondown,295,0,AM109,9:25:03,14,5000,lbuttondown,364,0,AM109,9:25:03,16,6000,lbuttondown,279,0,AM109,9:25:03,18,2000,lbuttondown,405,0,AM109,9:25:03,20,5000,lbuttondown,294,0,AM109,9:25:03,22,4000,lbuttondown,300,0,AM109,9:25:03,24,8000,lbuttondown,328,0,AM109,9:25:03,26,1000,lbuttondown,524,1,AM109,9:25:03,28,2000,lbuttondown,448,0,AM109,9:25:03,30,5000,lbuttondown,440,0,AM109,9:25:03,32,5000,lbuttondown,263,0,AM109,9:25:03,34,9000,lbuttondown,286,0,AM109,9:25:03,36,5000,lbuttondown,283,0,AM109,9:25:03,38,7000,lbuttondown,409,0,AM109,9:25:03,40,6000,lbuttondown,273,0,AM109,9:25:03,42,9000,lbuttondown,407,0,AM109,9:25:03,44,10000,lbuttondown,312,0,AM109,9:25:03,46,5000,lbuttondown,365,0,AM109,9:25:03,48,9000,lbuttondown,351,0,AM109,9:25:03,50,7000,lbuttondown,330,0,AM109,9:25:03,52,9000,lbuttondown,318,0,AM109,9:25:03,54,3000,lbuttondown,386,0,AM109,9:25:03,56,9000,lbuttondown,315,0,AM109,9:25:03,58,7000,lbuttondown,384,0,AM109,9:25:03,60,4000,lbuttondown,353,0,AM109,9:25:03,62,7000,lbuttondown,420,0,AM109,9:25:03,64,9000,lbuttondown,300,0,AM109,9:25:03,66,1000,lbuttondown,313,0,AM109,9:25:03,68,7000,lbuttondown,405,0,AM109,9:25:03,70,6000,lbuttondown,278,0,AM109,9:25:03,72,6000,lbuttondown,284,0,AM109,9:25:03,74,3000,lbuttondown,417,0,AM109,9:25:03,76,1000,lbuttondown,481,0,AM109,9:25:03,78,8000,lbuttondown,295,0,AM109,9:25:03,80,10000,lbuttondown,476,0,AM109,9:25:03,82,1000,lbuttondown,499,0,AM109,9:25:03,84,7000,lbuttondown,360,0,AM109,9:25:03,86,1000,lbuttondown,483,0,AM109,9:25:03,88,5000,lbuttondown,320,0,AM109,9:25:03,90,3000,lbuttondown,396,0,AM109,9:25:03,92,4000,lbuttondown,293,0,AM109,9:25:03,94,7000,lbuttondown,379,0,AM109,9:25:03,96,5000,lbuttondown,373,0,AM109,9:25:03,98,8000,lbuttondown,279,0,AM109,9:25:03,100,7000,lbuttondown,341,0,AM109,9:25:03,102,2000,lbuttondown,377,0,AM109,9:25:03,104,1000,lbuttondown,531,1,AM109,9:25:03,106,7000,lbuttondown,454,0,AM109,9:25:03,108,1000,lbuttondown,381,0,AM109,9:25:03,110,9000,lbuttondown,327,0,AM109,9:25:03,112,8000,lbuttondown,379,0,AM109,9:25:03,114,5000,lbuttondown,357,0,AM109,9:25:03,116,5000,lbuttondown,488,0,AM109,9:25:03,118,10000,lbuttondown,381,0,AM109,9:25:03,120,9000,lbuttondown,455,0,AM109,9:25:03,122,4000,lbuttondown,318,0,AM109,9:25:03,124,4000,lbuttondown,314,0,AM109,9:25:03,126,4000,lbuttondown,390,0,AM109,9:25:03,128,6000,lbuttondown,304,0,AM109,9:25:03,130,3000,lbuttondown,380,0,AM109,9:25:03,132,10000,lbuttondown,286,0,AM109,9:25:03,134,8000,lbuttondown,412,0,AM109,9:25:03,136,9000,lbuttondown,452,0,AM109,9:25:03,138,4000,lbuttondown,443,0,AM109,9:25:03,140,7000,lbuttondown,466,0,AM109,9:25:03,142,1000,lbuttondown,472,0,AM109,9:25:03,144,8000,lbuttondown,254,0,AM109,9:25:03,146,2000,lbuttondown,477,0,AM109,9:25:03,148,7000,lbuttondown,355,0,AM109,9:25:03,150,2000,lbuttondown,414,0,AM109,9:25:03,152,6000,lbuttondown,310,0,AM109,9:25:03,154,9000,lbuttondown,307,0,AM109,9:25:03,156,1000,lbuttondown,360,0,AM109,9:25:03,158,1000,lbuttondown,338,0,AM109,9:25:03,160,1000,lbuttondown,430,0,AM109,9:25:03,162,8000,lbuttondown,382,0,AM109,9:25:03,164,1000,lbuttondown,336,0,AM109,9:25:03,166,1000,lbuttondown,379,0,AM109,9:25:03,168,3000,lbuttondown,517,1,AM109,9:25:03,170,10000,lbuttondown,337,0,AM109,9:25:03,172,8000,lbuttondown,348,0,AM109,9:25:03,174,1000,lbuttondown,320,0,AM109,9:25:03,176,3000,lbuttondown,412,0,AM109,9:25:03,178,10000,lbuttondown,332,0,AM109,9:25:03,180,6000,lbuttondown,352,0,AM109,9:25:03,182,8000,lbuttondown,307,0,AM109,9:25:03,184,2000,lbuttondown,392,0,AM109,9:25:03,186,6000,lbuttondown,249,0,AM109,9:25:03,188,2000,lbuttondown,344,0,AM109,9:25:03,190,1000,lbuttondown,316,0,AM109,9:25:03,192,8000,0,0,0,AM109,22:52:22,2,2000,lbuttondown,638,1,PM109,22:52:22,4,6000,lbuttondown,333,0,PM109,22:52:22,6,6000,lbuttondown,281,0,PM109,22:52:22,8,2000,lbuttondown,431,0,PM109,22:52:22,10,8000,lbuttondown,351,0,PM109,22:52:22,12,2000,lbuttondown,481,0,PM109,22:52:22,14,6000,lbuttondown,335,0,PM109,22:52:22,16,9000,lbuttondown,459,0,PM109,22:52:22,18,8000,lbuttondown,329,0,PM109,22:52:22,20,2000,lbuttondown,493,0,PM109,22:52:22,22,9000,lbuttondown,371,0,PM109,22:52:22,24,9000,lbuttondown,308,0,PM109,22:52:22,26,9000,lbuttondown,321,0,PM109,22:52:22,28,8000,lbuttondown,301,0,PM109,22:52:22,30,6000,lbuttondown,474,0,PM109,22:52:22,32,3000,lbuttondown,304,0,PM109,22:52:22,34,8000,lbuttondown,316,0,PM109,22:52:22,36,6000,lbuttondown,272,0,PM109,22:52:22,38,8000,lbuttondown,318,0,PM109,22:52:22,40,8000,lbuttondown,330,0,PM109,22:52:22,42,2000,lbuttondown,527,1,PM109,22:52:22,44,5000,lbuttondown,418,0,PM109,22:52:22,46,5000,lbuttondown,402,0,PM109,22:52:22,48,9000,lbuttondown,347,0,PM109,22:52:22,50,10000,lbuttondown,326,0,PM109,22:52:22,52,5000,lbuttondown,370,0,PM109,22:52:22,54,7000,lbuttondown,364,0,PM109,22:52:22,56,4000,lbuttondown,335,0,PM109,22:52:22,58,7000,lbuttondown,362,0,PM109,22:52:22,60,8000,lbuttondown,389,0,PM109,22:52:22,62,7000,lbuttondown,382,0,PM109,22:52:22,64,1000,lbuttondown,568,1,PM109,22:52:22,66,9000,lbuttondown,354,0,PM109,22:52:22,68,10000,lbuttondown,372,0,PM109,22:52:22,70,10000,lbuttondown,462,0,PM109,22:52:22,72,10000,lbuttondown,461,0,PM109,22:52:22,74,4000,lbuttondown,524,1,PM109,22:52:22,76,3000,lbuttondown,352,0,PM109,22:52:22,78,6000,lbuttondown,338,0,PM109,22:52:22,80,8000,lbuttondown,366,0,PM109,22:52:22,82,4000,lbuttondown,344,0,PM109,22:52:22,84,2000,lbuttondown,467,0,PM109,22:52:22,86,4000,lbuttondown,409,0,PM109,22:52:22,88,6000,lbuttondown,514,1,PM109,22:52:22,90,10000,lbuttondown,334,0,PM109,22:52:22,92,3000,lbuttondown,522,1,PM109,22:52:22,94,5000,lbuttondown,398,0,PM109,22:52:22,96,7000,lbuttondown,351,0,PM109,22:52:22,98,6000,lbuttondown,353,0,PM109,22:52:22,100,3000,lbuttondown,340,0,PM109,22:52:22,102,9000,lbuttondown,303,0,PM109,22:52:22,104,9000,lbuttondown,372,0,PM109,22:52:22,106,7000,lbuttondown,374,0,PM109,22:52:22,108,8000,lbuttondown,328,0,PM109,22:52:22,110,4000,lbuttondown,333,0,PM109,22:52:22,112,5000,lbuttondown,352,0,PM109,22:52:22,114,9000,lbuttondown,267,0,PM109,22:52:22,116,2000,lbuttondown,497,0,PM109,22:52:22,118,2000,lbuttondown,422,0,PM109,22:52:22,120,8000,lbuttondown,406,0,PM109,22:52:22,122,10000,lbuttondown,375,0,PM109,22:52:22,124,6000,lbuttondown,425,0,PM109,22:52:22,126,7000,lbuttondown,353,0,PM109,22:52:22,128,1000,lbuttondown,491,0,PM109,22:52:22,130,4000,lbuttondown,385,0,PM109,22:52:22,132,10000,lbuttondown,410,0,PM109,22:52:22,134,9000,lbuttondown,347,0,PM109,22:52:22,136,2000,lbuttondown,398,0,PM109,22:52:22,138,9000,lbuttondown,455,0,PM109,22:52:22,140,8000,lbuttondown,550,1,PM109,22:52:22,142,8000,lbuttondown,401,0,PM109,22:52:22,144,6000,lbuttondown,401,0,PM109,22:52:22,146,7000,lbuttondown,362,0,PM109,22:52:22,148,8000,lbuttondown,493,0,PM109,22:52:22,150,2000,lbuttondown,450,0,PM109,22:52:22,152,5000,lbuttondown,505,1,PM109,22:52:22,154,1000,lbuttondown,389,0,PM109,22:52:22,156,2000,lbuttondown,367,0,PM109,22:52:22,158,2000,lbuttondown,329,0,PM109,22:52:22,160,4000,lbuttondown,309,0,PM109,22:52:22,162,3000,lbuttondown,297,0,PM109,22:52:22,164,4000,lbuttondown,407,0,PM109,22:52:22,166,9000,lbuttondown,319,0,PM109,22:52:22,168,10000,lbuttondown,371,0,PM109,22:52:22,170,6000,lbuttondown,325,0,PM109,22:52:22,172,8000,0,0,0,PM110,9:17:34,2,5000,lbuttondown,257,0,AM110,9:17:34,4,10000,lbuttondown,247,0,AM110,9:17:34,6,7000,lbuttondown,262,0,AM110,9:17:34,8,9000,lbuttondown,253,0,AM110,9:17:34,10,8000,lbuttondown,276,0,AM110,9:17:34,12,5000,lbuttondown,330,0,AM110,9:17:34,14,8000,lbuttondown,262,0,AM110,9:17:34,16,4000,lbuttondown,316,0,AM110,9:17:34,18,2000,lbuttondown,377,0,AM110,9:17:34,20,4000,lbuttondown,602,1,AM110,9:17:34,22,6000,lbuttondown,227,0,AM110,9:17:34,24,6000,lbuttondown,243,0,AM110,9:17:34,26,3000,lbuttondown,306,0,AM110,9:17:34,28,4000,lbuttondown,223,0,AM110,9:17:34,30,4000,lbuttondown,239,0,AM110,9:17:34,32,1000,lbuttondown,414,0,AM110,9:17:34,34,7000,lbuttondown,335,0,AM110,9:17:34,36,4000,lbuttondown,290,0,AM110,9:17:34,38,10000,lbuttondown,256,0,AM110,9:17:34,40,3000,lbuttondown,246,0,AM110,9:17:34,42,3000,lbuttondown,277,0,AM110,9:17:34,44,1000,lbuttondown,364,0,AM110,9:17:34,46,2000,lbuttondown,438,0,AM110,9:17:34,48,6000,lbuttondown,254,0,AM110,9:17:34,50,8000,lbuttondown,260,0,AM110,9:17:34,52,10000,lbuttondown,427,0,AM110,9:17:34,54,8000,lbuttondown,235,0,AM110,9:17:34,56,10000,lbuttondown,242,0,AM110,9:17:34,58,3000,lbuttondown,258,0,AM110,9:17:34,60,3000,lbuttondown,312,0,AM110,9:17:34,62,3000,lbuttondown,269,0,AM110,9:17:34,64,2000,lbuttondown,243,0,AM110,9:17:34,66,9000,lbuttondown,298,0,AM110,9:17:34,68,4000,lbuttondown,328,0,AM110,9:17:34,70,5000,lbuttondown,252,0,AM110,9:17:34,72,2000,lbuttondown,427,0,AM110,9:17:34,74,7000,lbuttondown,91,0,AM110,9:17:34,76,1000,lbuttondown,353,0,AM110,9:17:34,78,1000,lbuttondown,452,0,AM110,9:17:34,80,2000,lbuttondown,330,0,AM110,9:17:34,82,6000,lbuttondown,262,0,AM110,9:17:34,84,8000,lbuttondown,253,0,AM110,9:17:34,86,10000,lbuttondown,228,0,AM110,9:17:34,88,4000,lbuttondown,291,0,AM110,9:17:34,90,8000,lbuttondown,242,0,AM110,9:17:34,92,9000,lbuttondown,273,0,AM110,9:17:34,94,5000,lbuttondown,327,0,AM110,9:17:34,96,7000,lbuttondown,267,0,AM110,9:17:34,98,10000,lbuttondown,281,0,AM110,9:17:34,100,2000,lbuttondown,351,0,AM110,9:17:34,102,7000,lbuttondown,265,0,AM110,9:17:34,104,8000,lbuttondown,416,0,AM110,9:17:34,106,5000,lbuttondown,248,0,AM110,9:17:34,108,2000,lbuttondown,431,0,AM110,9:17:34,110,7000,lbuttondown,271,0,AM110,9:17:34,112,9000,lbuttondown,221,0,AM110,9:17:34,114,1000,lbuttondown,357,0,AM110,9:17:34,116,3000,lbuttondown,280,0,AM110,9:17:34,118,3000,lbuttondown,270,0,AM110,9:17:34,120,8000,lbuttondown,284,0,AM110,9:17:34,122,2000,lbuttondown,313,0,AM110,9:17:34,124,2000,lbuttondown,318,0,AM110,9:17:34,126,9000,lbuttondown,250,0,AM110,9:17:34,128,6000,lbuttondown,281,0,AM110,9:17:34,130,5000,lbuttondown,263,0,AM110,9:17:34,132,10000,lbuttondown,205,0,AM110,9:17:34,134,1000,lbuttondown,350,0,AM110,9:17:34,136,2000,lbuttondown,313,0,AM110,9:17:34,138,4000,lbuttondown,253,0,AM110,9:17:34,140,1000,lbuttondown,388,0,AM110,9:17:34,142,7000,lbuttondown,238,0,AM110,9:17:34,144,9000,lbuttondown,245,0,AM110,9:17:34,146,4000,lbuttondown,317,0,AM110,9:17:34,148,1000,lbuttondown,305,0,AM110,9:17:34,150,4000,lbuttondown,245,0,AM110,9:17:34,152,8000,lbuttondown,252,0,AM110,9:17:34,154,9000,lbuttondown,235,0,AM110,9:17:34,156,4000,lbuttondown,283,0,AM110,9:17:34,158,2000,lbuttondown,320,0,AM110,9:17:34,160,10000,lbuttondown,276,0,AM110,9:17:34,162,8000,lbuttondown,258,0,AM110,9:17:34,164,10000,lbuttondown,360,0,AM110,9:17:34,166,5000,lbuttondown,292,0,AM110,9:17:34,168,8000,lbuttondown,273,0,AM110,9:17:34,170,7000,lbuttondown,295,0,AM110,9:17:34,172,3000,lbuttondown,420,0,AM110,9:17:34,174,6000,lbuttondown,388,0,AM110,9:17:34,176,10000,lbuttondown,262,0,AM110,9:17:34,178,5000,lbuttondown,340,0,AM110,9:17:34,180,3000,lbuttondown,280,0,AM110,9:17:34,182,1000,lbuttondown,454,0,AM110,9:17:34,184,6000,lbuttondown,260,0,AM110,9:17:34,186,1000,lbuttondown,323,0,AM110,9:17:34,188,8000,lbuttondown,447,0,AM110,9:17:34,190,8000,lbuttondown,302,0,AM110,9:17:34,192,2000,lbuttondown,371,0,AM110,9:17:34,194,9000,0,0,0,AM110,22:42:32,2,3000,lbuttondown,374,0,PM110,22:42:32,4,7000,lbuttondown,344,0,PM110,22:42:32,6,9000,lbuttondown,252,0,PM110,22:42:32,8,6000,lbuttondown,242,0,PM110,22:42:32,10,6000,lbuttondown,282,0,PM110,22:42:32,12,8000,lbuttondown,232,0,PM110,22:42:32,14,3000,lbuttondown,320,0,PM110,22:42:32,16,9000,lbuttondown,283,0,PM110,22:42:32,18,8000,lbuttondown,225,0,PM110,22:42:32,20,1000,lbuttondown,513,1,PM110,22:42:32,22,5000,lbuttondown,270,0,PM110,22:42:32,24,7000,lbuttondown,251,0,PM110,22:42:32,26,1000,lbuttondown,330,0,PM110,22:42:32,28,3000,lbuttondown,358,0,PM110,22:42:32,30,5000,lbuttondown,297,0,PM110,22:42:32,32,4000,lbuttondown,486,0,PM110,22:42:32,34,9000,lbuttondown,276,0,PM110,22:42:32,36,4000,lbuttondown,377,0,PM110,22:42:32,38,7000,lbuttondown,372,0,PM110,22:42:32,40,7000,lbuttondown,301,0,PM110,22:42:32,42,2000,lbuttondown,786,1,PM110,22:42:32,44,8000,lbuttondown,211,0,PM110,22:42:32,46,9000,lbuttondown,244,0,PM110,22:42:32,48,1000,lbuttondown,363,0,PM110,22:42:32,50,3000,lbuttondown,462,0,PM110,22:42:32,52,9000,lbuttondown,253,0,PM110,22:42:32,54,4000,lbuttondown,299,0,PM110,22:42:32,56,10000,lbuttondown,232,0,PM110,22:42:32,58,8000,lbuttondown,264,0,PM110,22:42:32,60,7000,lbuttondown,335,0,PM110,22:42:32,62,9000,lbuttondown,306,0,PM110,22:42:32,64,3000,lbuttondown,575,1,PM110,22:42:32,66,8000,lbuttondown,281,0,PM110,22:42:32,68,2000,lbuttondown,303,0,PM110,22:42:32,70,9000,lbuttondown,259,0,PM110,22:42:32,72,2000,lbuttondown,1098,1,PM110,22:42:32,74,9000,lbuttondown,415,0,PM110,22:42:32,76,7000,lbuttondown,280,0,PM110,22:42:32,78,8000,lbuttondown,262,0,PM110,22:42:32,80,8000,lbuttondown,293,0,PM110,22:42:32,82,9000,lbuttondown,226,0,PM110,22:42:32,84,9000,lbuttondown,282,0,PM110,22:42:32,86,4000,lbuttondown,264,0,PM110,22:42:32,88,2000,lbuttondown,295,0,PM110,22:42:32,90,8000,lbuttondown,308,0,PM110,22:42:32,92,10000,lbuttondown,256,0,PM110,22:42:32,94,9000,lbuttondown,247,0,PM110,22:42:32,96,10000,lbuttondown,407,0,PM110,22:42:32,98,5000,lbuttondown,392,0,PM110,22:42:32,100,2000,lbuttondown,681,1,PM110,22:42:32,102,9000,lbuttondown,239,0,PM110,22:42:32,104,5000,lbuttondown,279,0,PM110,22:42:32,106,8000,lbuttondown,284,0,PM110,22:42:32,108,3000,lbuttondown,314,0,PM110,22:42:32,110,3000,lbuttondown,286,0,PM110,22:42:32,112,5000,lbuttondown,300,0,PM110,22:42:32,114,2000,lbuttondown,352,0,PM110,22:42:32,116,7000,lbuttondown,235,0,PM110,22:42:32,118,1000,lbuttondown,418,0,PM110,22:42:32,120,4000,lbuttondown,346,0,PM110,22:42:32,122,7000,lbuttondown,286,0,PM110,22:42:32,124,6000,lbuttondown,291,0,PM110,22:42:32,126,8000,lbuttondown,200,0,PM110,22:42:32,128,7000,lbuttondown,281,0,PM110,22:42:32,130,8000,lbuttondown,303,0,PM110,22:42:32,132,5000,lbuttondown,420,0,PM110,22:42:32,134,4000,lbuttondown,332,0,PM110,22:42:32,136,2000,lbuttondown,360,0,PM110,22:42:32,138,4000,lbuttondown,298,0,PM110,22:42:32,140,8000,lbuttondown,264,0,PM110,22:42:32,142,9000,lbuttondown,254,0,PM110,22:42:32,144,7000,lbuttondown,381,0,PM110,22:42:32,146,3000,lbuttondown,311,0,PM110,22:42:32,148,8000,lbuttondown,308,0,PM110,22:42:32,150,9000,lbuttondown,336,0,PM110,22:42:32,152,9000,lbuttondown,484,0,PM110,22:42:32,154,10000,lbuttondown,281,0,PM110,22:42:32,156,4000,lbuttondown,335,0,PM110,22:42:32,158,6000,lbuttondown,314,0,PM110,22:42:32,160,6000,lbuttondown,367,0,PM110,22:42:32,162,10000,lbuttondown,249,0,PM110,22:42:32,164,10000,lbuttondown,264,0,PM110,22:42:32,166,1000,lbuttondown,543,1,PM110,22:42:32,168,5000,lbuttondown,330,0,PM110,22:42:32,170,8000,lbuttondown,302,0,PM110,22:42:32,172,2000,lbuttondown,811,1,PM110,22:42:32,174,2000,0,0,0,PM111,9:20:47,2,10000,lbuttondown,406,0,AM111,9:20:47,4,8000,lbuttondown,526,1,AM111,9:20:47,6,2000,lbuttondown,370,0,AM111,9:20:47,8,9000,lbuttondown,932,1,AM111,9:20:47,10,3000,lbuttondown,592,1,AM111,9:20:47,12,4000,lbuttondown,337,0,AM111,9:20:47,14,8000,lbuttondown,317,0,AM111,9:20:47,16,8000,lbuttondown,321,0,AM111,9:20:47,18,1000,lbuttondown,437,0,AM111,9:20:47,20,8000,lbuttondown,460,0,AM111,9:20:47,22,3000,lbuttondown,307,0,AM111,9:20:47,24,4000,lbuttondown,296,0,AM111,9:20:47,26,2000,lbuttondown,397,0,AM111,9:20:47,28,4000,lbuttondown,366,0,AM111,9:20:47,30,6000,lbuttondown,344,0,AM111,9:20:47,32,6000,lbuttondown,339,0,AM111,9:20:47,34,10000,lbuttondown,271,0,AM111,9:20:47,36,4000,lbuttondown,373,0,AM111,9:20:47,38,2000,lbuttondown,271,0,AM111,9:20:47,40,6000,lbuttondown,341,0,AM111,9:20:47,42,9000,lbuttondown,344,0,AM111,9:20:47,44,1000,lbuttondown,371,0,AM111,9:20:47,46,1000,lbuttondown,381,0,AM111,9:20:47,48,5000,lbuttondown,855,1,AM111,9:20:47,50,10000,lbuttondown,334,0,AM111,9:20:47,52,10000,lbuttondown,297,0,AM111,9:20:47,54,7000,lbuttondown,343,0,AM111,9:20:47,56,4000,lbuttondown,322,0,AM111,9:20:47,58,4000,lbuttondown,470,0,AM111,9:20:47,60,8000,lbuttondown,356,0,AM111,9:20:47,62,1000,lbuttondown,367,0,AM111,9:20:47,64,7000,lbuttondown,529,1,AM111,9:20:47,66,7000,lbuttondown,309,0,AM111,9:20:47,68,6000,lbuttondown,321,0,AM111,9:20:47,70,10000,lbuttondown,109,0,AM111,9:20:47,72,5000,lbuttondown,258,0,AM111,9:20:47,74,1000,lbuttondown,385,0,AM111,9:20:47,76,5000,lbuttondown,818,1,AM111,9:20:47,78,2000,lbuttondown,378,0,AM111,9:20:47,80,6000,lbuttondown,372,0,AM111,9:20:47,82,9000,lbuttondown,318,0,AM111,9:20:47,84,3000,lbuttondown,370,0,AM111,9:20:47,86,4000,lbuttondown,308,0,AM111,9:20:47,88,2000,lbuttondown,449,0,AM111,9:20:47,90,5000,lbuttondown,328,0,AM111,9:20:47,92,8000,lbuttondown,532,1,AM111,9:20:47,94,1000,lbuttondown,1360,1,AM111,9:20:47,96,4000,lbuttondown,298,0,AM111,9:20:47,98,3000,lbuttondown,504,1,AM111,9:20:47,100,5000,lbuttondown,364,0,AM111,9:20:47,102,2000,lbuttondown,503,1,AM111,9:20:47,104,5000,lbuttondown,140,0,AM111,9:20:47,106,7000,lbuttondown,335,0,AM111,9:20:47,108,1000,lbuttondown,402,0,AM111,9:20:47,110,3000,lbuttondown,291,0,AM111,9:20:47,112,7000,lbuttondown,296,0,AM111,9:20:47,114,8000,lbuttondown,494,0,AM111,9:20:47,116,8000,lbuttondown,435,0,AM111,9:20:47,118,9000,lbuttondown,594,1,AM111,9:20:47,120,9000,lbuttondown,364,0,AM111,9:20:47,122,3000,lbuttondown,398,0,AM111,9:20:47,124,5000,lbuttondown,336,0,AM111,9:20:47,126,8000,lbuttondown,283,0,AM111,9:20:47,128,10000,lbuttondown,272,0,AM111,9:20:47,130,5000,lbuttondown,310,0,AM111,9:20:47,132,9000,lbuttondown,316,0,AM111,9:20:47,134,6000,lbuttondown,408,0,AM111,9:20:47,136,10000,lbuttondown,376,0,AM111,9:20:47,138,7000,lbuttondown,290,0,AM111,9:20:47,140,8000,lbuttondown,351,0,AM111,9:20:47,142,6000,lbuttondown,290,0,AM111,9:20:47,144,8000,lbuttondown,32,0,AM111,9:20:47,146,1000,lbuttondown,864,1,AM111,9:20:47,148,6000,lbuttondown,774,1,AM111,9:20:47,150,1000,lbuttondown,464,0,AM111,9:20:47,152,5000,lbuttondown,383,0,AM111,9:20:47,154,3000,lbuttondown,320,0,AM111,9:20:47,156,8000,lbuttondown,340,0,AM111,9:20:47,158,1000,lbuttondown,520,1,AM111,9:20:47,160,2000,lbuttondown,428,0,AM111,9:20:47,162,1000,lbuttondown,540,1,AM111,9:20:47,164,9000,lbuttondown,375,0,AM111,9:20:47,166,7000,lbuttondown,497,0,AM111,9:20:47,168,10000,lbuttondown,319,0,AM111,9:20:47,170,8000,lbuttondown,299,0,AM111,9:20:47,172,10000,lbuttondown,352,0,AM111,9:20:47,174,10000,lbuttondown,307,0,AM111,9:20:47,176,5000,lbuttondown,207,0,AM111,9:20:47,178,8000,lbuttondown,256,0,AM111,9:20:47,180,2000,lbuttondown,471,0,AM111,9:20:47,182,4000,lbuttondown,317,0,AM111,9:20:47,184,7000,0,0,0,AM111,22:46:13,2,8000,lbuttondown,895,1,PM111,22:46:13,4,4000,lbuttondown,477,0,PM111,22:46:13,6,5000,lbuttondown,395,0,PM111,22:46:13,8,1000,lbuttondown,492,0,PM111,22:46:13,10,10000,lbuttondown,353,0,PM111,22:46:13,12,8000,lbuttondown,468,0,PM111,22:46:13,14,7000,lbuttondown,378,0,PM111,22:46:13,16,4000,lbuttondown,364,0,PM111,22:46:13,18,9000,lbuttondown,342,0,PM111,22:46:13,20,6000,lbuttondown,442,0,PM111,22:46:13,22,7000,lbuttondown,353,0,PM111,22:46:13,24,2000,lbuttondown,340,0,PM111,22:46:13,26,3000,lbuttondown,407,0,PM111,22:46:13,28,8000,lbuttondown,352,0,PM111,22:46:13,30,8000,lbuttondown,354,0,PM111,22:46:13,32,1000,lbuttondown,429,0,PM111,22:46:13,34,1000,lbuttondown,501,1,PM111,22:46:13,36,1000,lbuttondown,322,0,PM111,22:46:13,38,3000,lbuttondown,326,0,PM111,22:46:13,40,10000,lbuttondown,299,0,PM111,22:46:13,42,2000,lbuttondown,352,0,PM111,22:46:13,44,10000,lbuttondown,386,0,PM111,22:46:13,46,8000,lbuttondown,340,0,PM111,22:46:13,48,6000,lbuttondown,303,0,PM111,22:46:13,50,1000,lbuttondown,452,0,PM111,22:46:13,52,10000,lbuttondown,298,0,PM111,22:46:13,54,7000,lbuttondown,288,0,PM111,22:46:13,56,2000,lbuttondown,389,0,PM111,22:46:13,58,1000,lbuttondown,335,0,PM111,22:46:13,60,9000,lbuttondown,330,0,PM111,22:46:13,62,6000,lbuttondown,350,0,PM111,22:46:13,64,6000,lbuttondown,345,0,PM111,22:46:13,66,5000,lbuttondown,340,0,PM111,22:46:13,68,4000,lbuttondown,368,0,PM111,22:46:13,70,1000,lbuttondown,418,0,PM111,22:46:13,72,5000,lbuttondown,322,0,PM111,22:46:13,74,8000,lbuttondown,430,0,PM111,22:46:13,76,10000,lbuttondown,374,0,PM111,22:46:13,78,3000,lbuttondown,656,1,PM111,22:46:13,80,3000,lbuttondown,430,0,PM111,22:46:13,82,4000,lbuttondown,334,0,PM111,22:46:13,84,1000,lbuttondown,418,0,PM111,22:46:13,86,5000,lbuttondown,330,0,PM111,22:46:13,88,9000,lbuttondown,406,0,PM111,22:46:13,90,8000,lbuttondown,390,0,PM111,22:46:13,92,9000,lbuttondown,335,0,PM111,22:46:13,94,1000,lbuttondown,475,0,PM111,22:46:13,96,7000,lbuttondown,473,0,PM111,22:46:13,98,5000,lbuttondown,103,0,PM111,22:46:13,100,1000,lbuttondown,396,0,PM111,22:46:13,102,8000,lbuttondown,357,0,PM111,22:46:13,104,10000,lbuttondown,312,0,PM111,22:46:13,106,4000,lbuttondown,349,0,PM111,22:46:13,108,4000,lbuttondown,416,0,PM111,22:46:13,110,4000,lbuttondown,312,0,PM111,22:46:13,112,7000,lbuttondown,309,0,PM111,22:46:13,114,9000,lbuttondown,274,0,PM111,22:46:13,116,2000,lbuttondown,408,0,PM111,22:46:13,118,1000,lbuttondown,168,0,PM111,22:46:13,120,9000,lbuttondown,306,0,PM111,22:46:13,122,4000,lbuttondown,327,0,PM111,22:46:13,124,5000,lbuttondown,307,0,PM111,22:46:13,126,10000,lbuttondown,343,0,PM111,22:46:13,128,10000,lbuttondown,467,0,PM111,22:46:13,130,10000,lbuttondown,433,0,PM111,22:46:13,132,9000,lbuttondown,344,0,PM111,22:46:13,134,10000,lbuttondown,267,0,PM111,22:46:13,136,5000,lbuttondown,273,0,PM111,22:46:13,138,1000,lbuttondown,343,0,PM111,22:46:13,140,9000,lbuttondown,291,0,PM111,22:46:13,142,9000,lbuttondown,416,0,PM111,22:46:13,144,9000,lbuttondown,312,0,PM111,22:46:13,146,10000,lbuttondown,381,0,PM111,22:46:13,148,6000,lbuttondown,319,0,PM111,22:46:13,150,1000,lbuttondown,347,0,PM111,22:46:13,152,7000,lbuttondown,334,0,PM111,22:46:13,154,7000,lbuttondown,313,0,PM111,22:46:13,156,5000,lbuttondown,374,0,PM111,22:46:13,158,2000,lbuttondown,328,0,PM111,22:46:13,160,10000,lbuttondown,324,0,PM111,22:46:13,162,6000,lbuttondown,377,0,PM111,22:46:13,164,9000,lbuttondown,339,0,PM111,22:46:13,166,10000,lbuttondown,326,0,PM111,22:46:13,168,5000,lbuttondown,427,0,PM111,22:46:13,170,5000,lbuttondown,427,0,PM111,22:46:13,172,7000,lbuttondown,306,0,PM111,22:46:13,174,10000,lbuttondown,327,0,PM111,22:46:13,176,3000,lbuttondown,411,0,PM111,22:46:13,178,10000,0,0,0,PM112,9:19:40,2,7000,lbuttondown,301,0,AM112,9:19:40,4,7000,lbuttondown,297,0,AM112,9:19:40,6,2000,lbuttondown,327,0,AM112,9:19:40,8,5000,lbuttondown,283,0,AM112,9:19:40,10,7000,lbuttondown,288,0,AM112,9:19:40,12,7000,lbuttondown,341,0,AM112,9:19:40,14,7000,lbuttondown,441,0,AM112,9:19:40,16,10000,lbuttondown,256,0,AM112,9:19:40,18,9000,lbuttondown,279,0,AM112,9:19:40,20,8000,lbuttondown,245,0,AM112,9:19:40,22,2000,lbuttondown,484,0,AM112,9:19:40,24,3000,lbuttondown,265,0,AM112,9:19:40,26,8000,lbuttondown,272,0,AM112,9:19:40,28,9000,lbuttondown,318,0,AM112,9:19:40,30,4000,lbuttondown,290,0,AM112,9:19:40,32,3000,lbuttondown,255,0,AM112,9:19:40,34,7000,lbuttondown,366,0,AM112,9:19:40,36,1000,lbuttondown,408,0,AM112,9:19:40,38,2000,lbuttondown,433,0,AM112,9:19:40,40,9000,lbuttondown,240,0,AM112,9:19:40,42,10000,lbuttondown,343,0,AM112,9:19:40,44,6000,lbuttondown,308,0,AM112,9:19:40,46,3000,lbuttondown,320,0,AM112,9:19:40,48,2000,lbuttondown,284,0,AM112,9:19:40,50,6000,lbuttondown,265,0,AM112,9:19:40,52,3000,lbuttondown,312,0,AM112,9:19:40,54,7000,lbuttondown,253,0,AM112,9:19:40,56,5000,lbuttondown,267,0,AM112,9:19:40,58,7000,lbuttondown,273,0,AM112,9:19:40,60,4000,lbuttondown,327,0,AM112,9:19:40,62,8000,lbuttondown,251,0,AM112,9:19:40,64,9000,lbuttondown,306,0,AM112,9:19:40,66,1000,lbuttondown,391,0,AM112,9:19:40,68,8000,lbuttondown,280,0,AM112,9:19:40,70,6000,lbuttondown,278,0,AM112,9:19:40,72,1000,lbuttondown,292,0,AM112,9:19:40,74,9000,lbuttondown,273,0,AM112,9:19:40,76,8000,lbuttondown,271,0,AM112,9:19:40,78,6000,lbuttondown,301,0,AM112,9:19:40,80,9000,lbuttondown,346,0,AM112,9:19:40,82,7000,lbuttondown,349,0,AM112,9:19:40,84,6000,lbuttondown,464,0,AM112,9:19:40,86,6000,lbuttondown,270,0,AM112,9:19:40,88,9000,lbuttondown,333,0,AM112,9:19:40,90,2000,lbuttondown,304,0,AM112,9:19:40,92,5000,lbuttondown,332,0,AM112,9:19:40,94,4000,lbuttondown,280,0,AM112,9:19:40,96,3000,lbuttondown,318,0,AM112,9:19:40,98,10000,lbuttondown,282,0,AM112,9:19:40,100,8000,lbuttondown,280,0,AM112,9:19:40,102,3000,lbuttondown,382,0,AM112,9:19:40,104,7000,lbuttondown,312,0,AM112,9:19:40,106,7000,lbuttondown,452,0,AM112,9:19:40,108,10000,lbuttondown,259,0,AM112,9:19:40,110,4000,lbuttondown,330,0,AM112,9:19:40,112,4000,lbuttondown,390,0,AM112,9:19:40,114,8000,lbuttondown,311,0,AM112,9:19:40,116,7000,lbuttondown,340,0,AM112,9:19:40,118,1000,lbuttondown,407,0,AM112,9:19:40,120,4000,lbuttondown,376,0,AM112,9:19:40,122,2000,lbuttondown,322,0,AM112,9:19:40,124,6000,lbuttondown,462,0,AM112,9:19:40,126,8000,lbuttondown,388,0,AM112,9:19:40,128,7000,lbuttondown,310,0,AM112,9:19:40,130,8000,lbuttondown,338,0,AM112,9:19:40,132,3000,lbuttondown,350,0,AM112,9:19:40,134,10000,lbuttondown,296,0,AM112,9:19:40,136,1000,lbuttondown,366,0,AM112,9:19:40,138,6000,lbuttondown,280,0,AM112,9:19:40,140,1000,lbuttondown,302,0,AM112,9:19:40,142,5000,lbuttondown,299,0,AM112,9:19:40,144,6000,lbuttondown,280,0,AM112,9:19:40,146,8000,lbuttondown,294,0,AM112,9:19:40,148,9000,lbuttondown,331,0,AM112,9:19:40,150,4000,lbuttondown,664,1,AM112,9:19:40,152,2000,lbuttondown,334,0,AM112,9:19:40,154,2000,lbuttondown,282,0,AM112,9:19:40,156,6000,lbuttondown,359,0,AM112,9:19:40,158,8000,lbuttondown,290,0,AM112,9:19:40,160,4000,lbuttondown,320,0,AM112,9:19:40,162,7000,lbuttondown,467,0,AM112,9:19:40,164,2000,lbuttondown,458,0,AM112,9:19:40,166,3000,lbuttondown,344,0,AM112,9:19:40,168,4000,lbuttondown,324,0,AM112,9:19:40,170,2000,lbuttondown,336,0,AM112,9:19:40,172,1000,lbuttondown,292,0,AM112,9:19:40,174,10000,lbuttondown,281,0,AM112,9:19:40,176,10000,lbuttondown,695,1,AM112,9:19:40,178,10000,lbuttondown,332,0,AM112,9:19:40,180,9000,lbuttondown,280,0,AM112,9:19:40,182,4000,0,0,0,AM112,22:47:37,2,4000,lbuttondown,321,0,PM112,22:47:37,4,4000,lbuttondown,229,0,PM112,22:47:37,6,2000,lbuttondown,261,0,PM112,22:47:37,8,4000,lbuttondown,260,0,PM112,22:47:37,10,10000,lbuttondown,298,0,PM112,22:47:37,12,4000,lbuttondown,280,0,PM112,22:47:37,14,5000,lbuttondown,286,0,PM112,22:47:37,16,1000,lbuttondown,315,0,PM112,22:47:37,18,6000,lbuttondown,295,0,PM112,22:47:37,20,8000,lbuttondown,261,0,PM112,22:47:37,22,3000,lbuttondown,268,0,PM112,22:47:37,24,6000,lbuttondown,281,0,PM112,22:47:37,26,3000,lbuttondown,319,0,PM112,22:47:37,28,10000,lbuttondown,307,0,PM112,22:47:37,30,7000,lbuttondown,264,0,PM112,22:47:37,32,8000,lbuttondown,383,0,PM112,22:47:37,34,7000,lbuttondown,312,0,PM112,22:47:37,36,9000,lbuttondown,301,0,PM112,22:47:37,38,8000,lbuttondown,465,0,PM112,22:47:37,40,3000,lbuttondown,280,0,PM112,22:47:37,42,3000,lbuttondown,238,0,PM112,22:47:37,44,6000,lbuttondown,245,0,PM112,22:47:37,46,4000,lbuttondown,253,0,PM112,22:47:37,48,7000,lbuttondown,371,0,PM112,22:47:37,50,6000,lbuttondown,245,0,PM112,22:47:37,52,9000,lbuttondown,301,0,PM112,22:47:37,54,3000,lbuttondown,337,0,PM112,22:47:37,56,9000,lbuttondown,269,0,PM112,22:47:37,58,8000,lbuttondown,347,0,PM112,22:47:37,60,7000,lbuttondown,326,0,PM112,22:47:37,62,8000,lbuttondown,306,0,PM112,22:47:37,64,1000,lbuttondown,367,0,PM112,22:47:37,66,3000,lbuttondown,305,0,PM112,22:47:37,68,3000,lbuttondown,309,0,PM112,22:47:37,70,8000,lbuttondown,314,0,PM112,22:47:37,72,7000,lbuttondown,295,0,PM112,22:47:37,74,7000,lbuttondown,260,0,PM112,22:47:37,76,4000,lbuttondown,242,0,PM112,22:47:37,78,9000,lbuttondown,258,0,PM112,22:47:37,80,8000,lbuttondown,272,0,PM112,22:47:37,82,6000,lbuttondown,278,0,PM112,22:47:37,84,7000,lbuttondown,293,0,PM112,22:47:37,86,5000,lbuttondown,266,0,PM112,22:47:37,88,4000,lbuttondown,368,0,PM112,22:47:37,90,10000,lbuttondown,258,0,PM112,22:47:37,92,3000,lbuttondown,361,0,PM112,22:47:37,94,8000,lbuttondown,276,0,PM112,22:47:37,96,8000,lbuttondown,346,0,PM112,22:47:37,98,3000,lbuttondown,357,0,PM